{"Id":"TESTUPM567-77","Type":"Sensoria","Structure":["S0","S1","S2","AccelX","AccelY","AccelZ","MagX","MagY","MagZ","GyroX","GyroY","GyroZ","TimeStamp","Foot"],"Lat":40.4540054,"Long":-3.6930955,"AppVersion":"1.0.0","RF-DeviceMac":"FB:A9:21:8E:78:69","RF-DeviceName":"Sensoria-C1-4B8A","LF-DeviceMac":"E6:6C:1C:F6:A3:4A","LF-DeviceName":"Sensoria-C1-C064"}
695,773,710,-0.101563,0.105469,0.988282,-0.009344,0.177536,-0.635392,-8.960000,-2.240000,-10.080000,1711268322059,Left
696,773,710,-0.105469,0.101563,0.988282,-0.009344,0.186880,-0.616704,-8.960000,-2.240000,-8.960000,1711268322063,Left
705,541,849,0.062500,-0.117188,1.031251,-0.429824,0.289664,-0.420480,-3.360000,-7.840000,0.000000,1711268322066,Right
695,773,710,-0.101563,0.105469,0.988282,-0.009344,0.177536,-0.635392,-8.960000,-2.240000,-10.080000,1711268322067,Left
705,541,849,0.062500,-0.117188,1.031251,-0.429824,0.289664,-0.420480,-3.360000,-7.840000,0.000000,1711268322068,Right
696,773,710,-0.105469,0.101563,0.988282,-0.009344,0.186880,-0.616704,-8.960000,-2.240000,-8.960000,1711268322069,Left
696,773,711,-0.101563,0.105469,0.988282,-0.009344,0.177536,-0.626048,-8.960000,-2.240000,-8.960000,1711268322075,Left
696,773,711,-0.101563,0.105469,0.988282,-0.009344,0.177536,-0.626048,-8.960000,-2.240000,-8.960000,1711268322076,Left
705,541,848,0.058594,-0.117188,1.027344,-0.420480,0.289664,-0.420480,-3.360000,-7.840000,0.000000,1711268322085,Right
705,541,848,0.058594,-0.117188,1.027344,-0.420480,0.289664,-0.420480,-3.360000,-7.840000,0.000000,1711268322088,Right
696,771,710,-0.097656,0.105469,0.992188,-0.009344,0.177536,-0.626048,-8.960000,-2.240000,-8.960000,1711268322097,Left
696,771,710,-0.097656,0.105469,0.992188,-0.009344,0.177536,-0.626048,-8.960000,-2.240000,-8.960000,1711268322100,Left
704,541,850,0.054688,-0.117188,1.031251,-0.429824,0.289664,-0.429824,-3.360000,-7.840000,0.000000,1711268322107,Right
704,541,850,0.054688,-0.117188,1.031251,-0.429824,0.289664,-0.429824,-3.360000,-7.840000,0.000000,1711268322110,Right
695,773,709,-0.105469,0.101563,0.988282,-0.009344,0.177536,-0.635392,-8.960000,-2.240000,-8.960000,1711268322118,Left
695,773,709,-0.105469,0.101563,0.988282,-0.009344,0.177536,-0.635392,-8.960000,-2.240000,-8.960000,1711268322122,Left
705,541,850,0.058594,-0.117188,1.027344,-0.429824,0.289664,-0.420480,-3.360000,-7.840000,0.000000,1711268322129,Right
705,541,850,0.058594,-0.117188,1.027344,-0.429824,0.289664,-0.420480,-3.360000,-7.840000,0.000000,1711268322132,Right
695,774,710,-0.105469,0.101563,0.992188,-0.009344,0.177536,-0.626048,-8.960000,-2.240000,-8.960000,1711268322139,Left
695,774,710,-0.105469,0.101563,0.992188,-0.009344,0.177536,-0.626048,-8.960000,-2.240000,-8.960000,1711268322142,Left
703,541,850,0.054688,-0.117188,1.031251,-0.429824,0.299008,-0.411136,-3.360000,-7.840000,0.000000,1711268322150,Right
703,541,850,0.054688,-0.117188,1.031251,-0.429824,0.299008,-0.411136,-3.360000,-7.840000,0.000000,1711268322155,Right
696,773,710,-0.101563,0.101563,0.992188,-0.009344,0.177536,-0.635392,-8.960000,-2.240000,-10.080000,1711268322160,Left
696,773,710,-0.101563,0.101563,0.992188,-0.009344,0.177536,-0.635392,-8.960000,-2.240000,-10.080000,1711268322162,Left
705,542,850,0.058594,-0.117188,1.031251,-0.429824,0.289664,-0.429824,-3.360000,-7.840000,0.000000,1711268322171,Right
705,542,850,0.058594,-0.117188,1.031251,-0.429824,0.289664,-0.429824,-3.360000,-7.840000,0.000000,1711268322174,Right
696,773,710,-0.105469,0.105469,0.984376,-0.009344,0.177536,-0.635392,-8.960000,-2.240000,-10.080000,1711268322181,Left
696,773,710,-0.105469,0.105469,0.984376,-0.009344,0.177536,-0.635392,-8.960000,-2.240000,-10.080000,1711268322184,Left
705,541,850,0.058594,-0.117188,1.027344,-0.429824,0.299008,-0.411136,-3.360000,-7.840000,0.000000,1711268322192,Right
705,541,850,0.058594,-0.117188,1.027344,-0.429824,0.299008,-0.411136,-3.360000,-7.840000,0.000000,1711268322196,Right
696,772,712,-0.101563,0.101563,0.988282,-0.009344,0.177536,-0.635392,-8.960000,-2.240000,-10.080000,1711268322202,Left
696,772,712,-0.101563,0.101563,0.988282,-0.009344,0.177536,-0.635392,-8.960000,-2.240000,-10.080000,1711268322204,Left
706,542,850,0.058594,-0.117188,1.031251,-0.429824,0.299008,-0.411136,-3.360000,-7.840000,0.000000,1711268322213,Right
706,542,850,0.058594,-0.117188,1.031251,-0.429824,0.299008,-0.411136,-3.360000,-7.840000,0.000000,1711268322216,Right
697,773,709,-0.105469,0.105469,0.988282,-0.009344,0.177536,-0.635392,-8.960000,-2.240000,-10.080000,1711268322224,Left
697,773,709,-0.105469,0.105469,0.988282,-0.009344,0.177536,-0.635392,-8.960000,-2.240000,-10.080000,1711268322227,Left
704,543,849,0.058594,-0.117188,1.031251,-0.429824,0.299008,-0.420480,-3.360000,-7.840000,0.000000,1711268322234,Right
704,543,849,0.058594,-0.117188,1.031251,-0.429824,0.299008,-0.420480,-3.360000,-7.840000,0.000000,1711268322237,Right
696,773,709,-0.105469,0.101563,0.988282,-0.009344,0.186880,-0.635392,-8.960000,-2.240000,-10.080000,1711268322246,Left
696,773,709,-0.105469,0.101563,0.988282,-0.009344,0.186880,-0.635392,-8.960000,-2.240000,-10.080000,1711268322248,Left
706,541,849,0.058594,-0.117188,1.031251,-0.429824,0.299008,-0.420480,-3.360000,-7.840000,0.000000,1711268322256,Right
706,541,849,0.058594,-0.117188,1.031251,-0.429824,0.299008,-0.420480,-3.360000,-7.840000,0.000000,1711268322259,Right
696,773,711,-0.105469,0.101563,0.988282,-0.009344,0.186880,-0.644736,-8.960000,-2.240000,-8.960000,1711268322266,Left
696,773,711,-0.105469,0.101563,0.988282,-0.009344,0.186880,-0.644736,-8.960000,-2.240000,-8.960000,1711268322268,Left
704,543,849,0.058594,-0.121094,1.031251,-0.429824,0.289664,-0.420480,-3.360000,-7.840000,0.000000,1711268322277,Right
704,543,849,0.058594,-0.121094,1.031251,-0.429824,0.289664,-0.420480,-3.360000,-7.840000,0.000000,1711268322281,Right
696,772,709,-0.101563,0.105469,0.992188,-0.009344,0.186880,-0.644736,-8.960000,-2.240000,-10.080000,1711268322288,Left
696,772,709,-0.101563,0.105469,0.992188,-0.009344,0.186880,-0.644736,-8.960000,-2.240000,-10.080000,1711268322291,Left
705,542,850,0.058594,-0.117188,1.031251,-0.429824,0.289664,-0.420480,-3.360000,-7.840000,0.000000,1711268322298,Right
705,542,850,0.058594,-0.117188,1.031251,-0.429824,0.289664,-0.420480,-3.360000,-7.840000,0.000000,1711268322301,Right
696,772,711,-0.101563,0.101563,0.992188,-0.009344,0.177536,-0.626048,-8.960000,-2.240000,-8.960000,1711268322309,Left
696,772,711,-0.101563,0.101563,0.992188,-0.009344,0.177536,-0.626048,-8.960000,-2.240000,-8.960000,1711268322312,Left
705,542,851,0.058594,-0.121094,1.031251,-0.429824,0.289664,-0.420480,-3.360000,-7.840000,0.000000,1711268322320,Right
705,542,851,0.058594,-0.121094,1.031251,-0.429824,0.289664,-0.420480,-3.360000,-7.840000,0.000000,1711268322324,Right
696,774,709,-0.101563,0.101563,0.988282,-0.009344,0.186880,-0.626048,-8.960000,-2.240000,-8.960000,1711268322330,Left
696,774,709,-0.101563,0.101563,0.988282,-0.009344,0.186880,-0.626048,-8.960000,-2.240000,-8.960000,1711268322333,Left
704,541,852,0.058594,-0.117188,1.031251,-0.429824,0.299008,-0.420480,-3.360000,-7.840000,0.000000,1711268322341,Right
704,541,852,0.058594,-0.117188,1.031251,-0.429824,0.299008,-0.420480,-3.360000,-7.840000,0.000000,1711268322344,Right
697,773,710,-0.105469,0.097656,0.988282,-0.009344,0.177536,-0.644736,-8.960000,-2.240000,-10.080000,1711268322351,Left
697,773,710,-0.105469,0.097656,0.988282,-0.009344,0.177536,-0.644736,-8.960000,-2.240000,-10.080000,1711268322353,Left
697,772,711,-0.101563,0.105469,0.988282,-0.009344,0.177536,-0.644736,-8.960000,-2.240000,-8.960000,1711268322355,Left
697,772,711,-0.101563,0.105469,0.988282,-0.009344,0.177536,-0.644736,-8.960000,-2.240000,-8.960000,1711268322357,Left
706,542,850,0.058594,-0.117188,1.031251,-0.429824,0.289664,-0.420480,-3.360000,-7.840000,0.000000,1711268322361,Right
706,542,850,0.058594,-0.117188,1.031251,-0.429824,0.289664,-0.420480,-3.360000,-7.840000,0.000000,1711268322363,Right
695,773,711,-0.101563,0.105469,0.992188,-0.009344,0.177536,-0.635392,-8.960000,-2.240000,-8.960000,1711268322372,Left
695,773,711,-0.101563,0.105469,0.992188,-0.009344,0.177536,-0.635392,-8.960000,-2.240000,-8.960000,1711268322375,Left
705,541,849,0.058594,-0.121094,1.031251,-0.429824,0.299008,-0.411136,-3.360000,-7.840000,0.000000,1711268322383,Right
705,541,849,0.058594,-0.121094,1.031251,-0.429824,0.299008,-0.411136,-3.360000,-7.840000,0.000000,1711268322386,Right
696,771,710,-0.105469,0.101563,0.988282,-0.009344,0.177536,-0.635392,-8.960000,-2.240000,-8.960000,1711268322394,Left
696,771,710,-0.105469,0.101563,0.988282,-0.009344,0.177536,-0.635392,-8.960000,-2.240000,-8.960000,1711268322396,Left
705,542,851,0.058594,-0.117188,1.027344,-0.429824,0.299008,-0.411136,-3.360000,-7.840000,0.000000,1711268322404,Right
705,542,851,0.058594,-0.117188,1.027344,-0.429824,0.299008,-0.411136,-3.360000,-7.840000,0.000000,1711268322405,Right
697,772,709,-0.105469,0.101563,0.988282,-0.009344,0.177536,-0.635392,-8.960000,-2.240000,-8.960000,1711268322415,Left
697,772,709,-0.105469,0.101563,0.988282,-0.009344,0.177536,-0.635392,-8.960000,-2.240000,-8.960000,1711268322416,Left
706,542,849,0.058594,-0.117188,1.027344,-0.429824,0.289664,-0.429824,-3.360000,-7.840000,0.000000,1711268322425,Right
706,542,849,0.058594,-0.117188,1.027344,-0.429824,0.289664,-0.429824,-3.360000,-7.840000,0.000000,1711268322429,Right
696,772,709,-0.105469,0.105469,0.988282,-0.009344,0.177536,-0.635392,-8.960000,-2.240000,-10.080000,1711268322437,Left
696,772,709,-0.105469,0.105469,0.988282,-0.009344,0.177536,-0.635392,-8.960000,-2.240000,-10.080000,1711268322440,Left
705,542,850,0.058594,-0.117188,1.027344,-0.429824,0.299008,-0.411136,-3.360000,-7.840000,0.000000,1711268322448,Right
705,542,850,0.058594,-0.117188,1.027344,-0.429824,0.299008,-0.411136,-3.360000,-7.840000,0.000000,1711268322452,Right
696,773,710,-0.105469,0.101563,0.992188,-0.009344,0.177536,-0.635392,-8.960000,-2.240000,-10.080000,1711268322457,Left
696,773,710,-0.105469,0.101563,0.992188,-0.009344,0.177536,-0.635392,-8.960000,-2.240000,-10.080000,1711268322459,Left
705,542,851,0.058594,-0.117188,1.031251,-0.429824,0.299008,-0.420480,-3.360000,-7.840000,0.000000,1711268322468,Right
705,542,851,0.058594,-0.117188,1.031251,-0.429824,0.299008,-0.420480,-3.360000,-7.840000,0.000000,1711268322470,Right
696,772,709,-0.105469,0.101563,0.992188,-0.009344,0.177536,-0.626048,-8.960000,-2.240000,-8.960000,1711268322479,Left
696,772,709,-0.105469,0.101563,0.992188,-0.009344,0.177536,-0.626048,-8.960000,-2.240000,-8.960000,1711268322482,Left
704,542,852,0.054688,-0.117188,1.035157,-0.429824,0.289664,-0.420480,-3.360000,-7.840000,0.000000,1711268322489,Right
704,542,852,0.054688,-0.117188,1.035157,-0.429824,0.289664,-0.420480,-3.360000,-7.840000,0.000000,1711268322492,Right
695,773,710,-0.101563,0.101563,0.992188,-0.009344,0.177536,-0.626048,-8.960000,-2.240000,-8.960000,1711268322500,Left
695,773,710,-0.101563,0.101563,0.992188,-0.009344,0.177536,-0.626048,-8.960000,-2.240000,-8.960000,1711268322502,Left
704,543,851,0.058594,-0.117188,1.031251,-0.429824,0.299008,-0.420480,-3.360000,-7.840000,0.000000,1711268322510,Right
704,543,851,0.058594,-0.117188,1.031251,-0.429824,0.299008,-0.420480,-3.360000,-7.840000,0.000000,1711268322514,Right
696,774,709,-0.101563,0.101563,0.988282,-0.009344,0.177536,-0.635392,-8.960000,-2.240000,-8.960000,1711268322521,Left
696,774,709,-0.101563,0.101563,0.988282,-0.009344,0.177536,-0.635392,-8.960000,-2.240000,-8.960000,1711268322523,Left
705,543,850,0.058594,-0.121094,1.031251,-0.429824,0.299008,-0.420480,-3.360000,-7.840000,0.000000,1711268322532,Right
705,543,850,0.058594,-0.121094,1.031251,-0.429824,0.299008,-0.420480,-3.360000,-7.840000,0.000000,1711268322534,Right
696,773,711,-0.101563,0.105469,0.988282,-0.009344,0.177536,-0.644736,-8.960000,-2.240000,-10.080000,1711268322543,Left
696,773,711,-0.101563,0.105469,0.988282,-0.009344,0.177536,-0.644736,-8.960000,-2.240000,-10.080000,1711268322545,Left
705,542,850,0.058594,-0.117188,1.035157,-0.429824,0.289664,-0.429824,-3.360000,-7.840000,0.000000,1711268322553,Right
705,542,850,0.058594,-0.117188,1.035157,-0.429824,0.289664,-0.429824,-3.360000,-7.840000,0.000000,1711268322555,Right
696,771,711,-0.101563,0.101563,0.988282,-0.009344,0.177536,-0.635392,-8.960000,-2.240000,-8.960000,1711268322563,Left
696,771,711,-0.101563,0.101563,0.988282,-0.009344,0.177536,-0.635392,-8.960000,-2.240000,-8.960000,1711268322566,Left
706,541,851,0.054688,-0.117188,1.027344,-0.429824,0.289664,-0.429824,-3.360000,-7.840000,0.000000,1711268322574,Right
706,541,851,0.054688,-0.117188,1.027344,-0.429824,0.289664,-0.429824,-3.360000,-7.840000,0.000000,1711268322578,Right
696,773,709,-0.105469,0.105469,0.988282,-0.009344,0.177536,-0.635392,-8.960000,-2.240000,-10.080000,1711268322585,Left
696,773,709,-0.105469,0.105469,0.988282,-0.009344,0.177536,-0.635392,-8.960000,-2.240000,-10.080000,1711268322586,Left
705,541,851,0.058594,-0.117188,1.031251,-0.429824,0.289664,-0.420480,-3.360000,-7.840000,0.000000,1711268322595,Right
705,541,851,0.058594,-0.117188,1.031251,-0.429824,0.289664,-0.420480,-3.360000,-7.840000,0.000000,1711268322598,Right
695,772,710,-0.101563,0.105469,0.992188,0.000000,0.177536,-0.635392,-8.960000,-2.240000,-8.960000,1711268322606,Left
695,772,710,-0.101563,0.105469,0.992188,0.000000,0.177536,-0.635392,-8.960000,-2.240000,-8.960000,1711268322610,Left
705,541,849,0.058594,-0.117188,1.031251,-0.429824,0.299008,-0.420480,-3.360000,-7.840000,0.000000,1711268322617,Right
705,541,849,0.058594,-0.117188,1.031251,-0.429824,0.299008,-0.420480,-3.360000,-7.840000,0.000000,1711268322621,Right
697,773,711,-0.101563,0.109375,0.992188,-0.009344,0.177536,-0.635392,-8.960000,-2.240000,-10.080000,1711268322627,Left
697,773,711,-0.101563,0.109375,0.992188,-0.009344,0.177536,-0.635392,-8.960000,-2.240000,-10.080000,1711268322629,Left
705,541,850,0.058594,-0.117188,1.031251,-0.429824,0.289664,-0.420480,-3.360000,-7.840000,0.000000,1711268322638,Right
705,541,850,0.058594,-0.117188,1.031251,-0.429824,0.289664,-0.420480,-3.360000,-7.840000,0.000000,1711268322641,Right
696,773,709,-0.101563,0.105469,0.992188,-0.009344,0.177536,-0.635392,-8.960000,-2.240000,-8.960000,1711268322649,Left
696,773,709,-0.101563,0.105469,0.992188,-0.009344,0.177536,-0.635392,-8.960000,-2.240000,-8.960000,1711268322652,Left
706,543,850,0.054688,-0.117188,1.031251,-0.429824,0.289664,-0.420480,-3.360000,-7.840000,0.000000,1711268322659,Right
706,543,850,0.054688,-0.117188,1.031251,-0.429824,0.289664,-0.420480,-3.360000,-7.840000,0.000000,1711268322663,Right
696,772,711,-0.101563,0.101563,0.988282,-0.009344,0.177536,-0.644736,-8.960000,-2.240000,-8.960000,1711268322670,Left
696,772,711,-0.101563,0.101563,0.988282,-0.009344,0.177536,-0.644736,-8.960000,-2.240000,-8.960000,1711268322674,Left
705,542,851,0.062500,-0.117188,1.031251,-0.429824,0.289664,-0.420480,-3.360000,-7.840000,0.000000,1711268322681,Right
705,542,851,0.062500,-0.117188,1.031251,-0.429824,0.289664,-0.420480,-3.360000,-7.840000,0.000000,1711268322684,Right
696,774,710,-0.101563,0.101563,0.988282,-0.009344,0.177536,-0.644736,-8.960000,-2.240000,-8.960000,1711268322691,Left
696,774,710,-0.101563,0.101563,0.988282,-0.009344,0.177536,-0.644736,-8.960000,-2.240000,-8.960000,1711268322694,Left
697,771,709,-0.101563,0.101563,0.988282,-0.009344,0.177536,-0.635392,-8.960000,-2.240000,-10.080000,1711268322697,Left
697,771,709,-0.101563,0.101563,0.988282,-0.009344,0.177536,-0.635392,-8.960000,-2.240000,-10.080000,1711268322700,Left
704,542,851,0.058594,-0.117188,1.031251,-0.429824,0.289664,-0.420480,-3.360000,-7.840000,0.000000,1711268322702,Right
704,542,851,0.058594,-0.117188,1.031251,-0.429824,0.289664,-0.420480,-3.360000,-7.840000,0.000000,1711268322704,Right
696,772,710,-0.105469,0.101563,0.992188,-0.009344,0.177536,-0.635392,-8.960000,-2.240000,-8.960000,1711268322713,Left
696,772,710,-0.105469,0.101563,0.992188,-0.009344,0.177536,-0.635392,-8.960000,-2.240000,-8.960000,1711268322715,Left
705,542,851,0.058594,-0.117188,1.031251,-0.429824,0.289664,-0.429824,-3.360000,-7.840000,0.000000,1711268322723,Right
705,542,851,0.058594,-0.117188,1.031251,-0.429824,0.289664,-0.429824,-3.360000,-7.840000,0.000000,1711268322726,Right
696,772,711,-0.105469,0.101563,0.988282,-0.009344,0.186880,-0.644736,-8.960000,-2.240000,-8.960000,1711268322734,Left
696,772,711,-0.105469,0.101563,0.988282,-0.009344,0.186880,-0.644736,-8.960000,-2.240000,-8.960000,1711268322737,Left
705,542,851,0.054688,-0.117188,1.031251,-0.429824,0.289664,-0.411136,-3.360000,-7.840000,0.000000,1711268322745,Right
705,542,851,0.054688,-0.117188,1.031251,-0.429824,0.289664,-0.411136,-3.360000,-7.840000,0.000000,1711268322748,Right
696,772,711,-0.105469,0.105469,0.992188,-0.009344,0.186880,-0.644736,-8.960000,-2.240000,-10.080000,1711268322755,Left
696,772,711,-0.105469,0.105469,0.992188,-0.009344,0.186880,-0.644736,-8.960000,-2.240000,-10.080000,1711268322757,Left
705,542,851,0.054688,-0.117188,1.027344,-0.429824,0.289664,-0.411136,-3.360000,-7.840000,0.000000,1711268322765,Right
705,542,851,0.054688,-0.117188,1.027344,-0.429824,0.289664,-0.411136,-3.360000,-7.840000,0.000000,1711268322768,Right
697,772,711,-0.105469,0.105469,0.988282,-0.009344,0.177536,-0.644736,-8.960000,-2.240000,-8.960000,1711268322776,Left
697,772,711,-0.105469,0.105469,0.988282,-0.009344,0.177536,-0.644736,-8.960000,-2.240000,-8.960000,1711268322778,Left
705,541,851,0.058594,-0.117188,1.031251,-0.420480,0.299008,-0.420480,-3.360000,-7.840000,0.000000,1711268322787,Right
705,541,851,0.058594,-0.117188,1.031251,-0.420480,0.299008,-0.420480,-3.360000,-7.840000,0.000000,1711268322790,Right
696,773,710,-0.105469,0.101563,0.992188,-0.009344,0.177536,-0.635392,-8.960000,-2.240000,-10.080000,1711268322798,Left
696,773,710,-0.105469,0.101563,0.992188,-0.009344,0.177536,-0.635392,-8.960000,-2.240000,-10.080000,1711268322801,Left
704,541,850,0.058594,-0.117188,1.027344,-0.429824,0.289664,-0.411136,-3.360000,-7.840000,0.000000,1711268322808,Right
704,541,850,0.058594,-0.117188,1.027344,-0.429824,0.289664,-0.411136,-3.360000,-7.840000,0.000000,1711268322811,Right
696,773,711,-0.101563,0.105469,0.988282,-0.018688,0.186880,-0.654080,-8.960000,-2.240000,-8.960000,1711268322818,Left
696,773,711,-0.101563,0.105469,0.988282,-0.018688,0.186880,-0.654080,-8.960000,-2.240000,-8.960000,1711268322820,Left
705,542,849,0.058594,-0.117188,1.027344,-0.429824,0.299008,-0.429824,-3.360000,-7.840000,0.000000,1711268322829,Right
705,542,849,0.058594,-0.117188,1.027344,-0.429824,0.299008,-0.429824,-3.360000,-7.840000,0.000000,1711268322832,Right
697,773,709,-0.101563,0.105469,0.988282,-0.009344,0.177536,-0.635392,-8.960000,-2.240000,-8.960000,1711268322840,Left
697,773,709,-0.101563,0.105469,0.988282,-0.009344,0.177536,-0.635392,-8.960000,-2.240000,-8.960000,1711268322842,Left
704,541,850,0.054688,-0.117188,1.031251,-0.420480,0.299008,-0.411136,-3.360000,-7.840000,0.000000,1711268322850,Right
704,541,850,0.054688,-0.117188,1.031251,-0.420480,0.299008,-0.411136,-3.360000,-7.840000,0.000000,1711268322853,Right
697,772,710,-0.105469,0.105469,0.988282,-0.009344,0.177536,-0.635392,-8.960000,-2.240000,-10.080000,1711268322861,Left
697,772,710,-0.105469,0.105469,0.988282,-0.009344,0.177536,-0.635392,-8.960000,-2.240000,-10.080000,1711268322865,Left
705,541,851,0.058594,-0.117188,1.031251,-0.420480,0.299008,-0.411136,-3.360000,-7.840000,0.000000,1711268322872,Right
705,541,851,0.058594,-0.117188,1.031251,-0.420480,0.299008,-0.411136,-3.360000,-7.840000,0.000000,1711268322876,Right
696,772,710,-0.101563,0.105469,0.988282,-0.009344,0.177536,-0.635392,-8.960000,-2.240000,-8.960000,1711268322882,Left
696,772,710,-0.101563,0.105469,0.988282,-0.009344,0.177536,-0.635392,-8.960000,-2.240000,-8.960000,1711268322884,Left
704,542,851,0.058594,-0.117188,1.031251,-0.429824,0.289664,-0.429824,-3.360000,-7.840000,0.000000,1711268322893,Right
704,542,851,0.058594,-0.117188,1.031251,-0.429824,0.289664,-0.429824,-3.360000,-7.840000,0.000000,1711268322895,Right
695,772,712,-0.101563,0.105469,0.984376,-0.009344,0.177536,-0.635392,-8.960000,-2.240000,-8.960000,1711268322905,Left
695,772,712,-0.101563,0.105469,0.984376,-0.009344,0.177536,-0.635392,-8.960000,-2.240000,-8.960000,1711268322907,Left
705,541,850,0.054688,-0.117188,1.031251,-0.429824,0.299008,-0.411136,-3.360000,-7.840000,0.000000,1711268322914,Right
705,541,850,0.054688,-0.117188,1.031251,-0.429824,0.299008,-0.411136,-3.360000,-7.840000,0.000000,1711268322916,Right
696,773,709,-0.105469,0.101563,0.984376,-0.009344,0.177536,-0.635392,-8.960000,-2.240000,-8.960000,1711268322925,Left
696,773,709,-0.105469,0.101563,0.984376,-0.009344,0.177536,-0.635392,-8.960000,-2.240000,-8.960000,1711268322926,Left
705,541,850,0.058594,-0.117188,1.031251,-0.429824,0.289664,-0.429824,-3.360000,-7.840000,0.000000,1711268322936,Right
705,541,850,0.058594,-0.117188,1.031251,-0.429824,0.289664,-0.429824,-3.360000,-7.840000,0.000000,1711268322940,Right
706,542,852,0.058594,-0.117188,1.027344,-0.429824,0.289664,-0.429824,-3.360000,-7.840000,0.000000,1711268322957,Right
706,542,852,0.058594,-0.117188,1.027344,-0.429824,0.289664,-0.429824,-3.360000,-7.840000,0.000000,1711268322962,Right
697,773,712,-0.101563,0.101563,0.992188,-0.009344,0.177536,-0.626048,-8.960000,-2.240000,-8.960000,1711268322968,Left
697,773,712,-0.101563,0.101563,0.992188,-0.009344,0.177536,-0.626048,-8.960000,-2.240000,-8.960000,1711268322970,Left
705,541,851,0.062500,-0.117188,1.031251,-0.420480,0.299008,-0.411136,-3.360000,-7.840000,0.000000,1711268322978,Right
705,541,851,0.062500,-0.117188,1.031251,-0.420480,0.299008,-0.411136,-3.360000,-7.840000,0.000000,1711268322980,Right
696,773,711,-0.109375,0.097656,0.988282,-0.018688,0.177536,-0.644736,-8.960000,-2.240000,-10.080000,1711268322989,Left
696,773,711,-0.109375,0.097656,0.988282,-0.018688,0.177536,-0.644736,-8.960000,-2.240000,-10.080000,1711268322993,Left
705,541,851,0.058594,-0.117188,1.027344,-0.420480,0.289664,-0.420480,-3.360000,-7.840000,0.000000,1711268323000,Right
705,541,851,0.058594,-0.117188,1.027344,-0.420480,0.289664,-0.420480,-3.360000,-7.840000,0.000000,1711268323005,Right
697,773,709,-0.097656,0.105469,0.988282,-0.009344,0.177536,-0.626048,-8.960000,-2.240000,-8.960000,1711268323010,Left
697,773,709,-0.097656,0.105469,0.988282,-0.009344,0.177536,-0.626048,-8.960000,-2.240000,-8.960000,1711268323012,Left
705,541,851,0.054688,-0.117188,1.027344,-0.429824,0.289664,-0.429824,-3.360000,-7.840000,0.000000,1711268323020,Right
705,541,851,0.054688,-0.117188,1.027344,-0.429824,0.289664,-0.429824,-3.360000,-7.840000,0.000000,1711268323021,Right
697,773,711,-0.101563,0.105469,0.988282,-0.009344,0.177536,-0.626048,-8.960000,-2.240000,-10.080000,1711268323031,Left
697,773,711,-0.101563,0.105469,0.988282,-0.009344,0.177536,-0.626048,-8.960000,-2.240000,-10.080000,1711268323035,Left
705,543,849,0.058594,-0.117188,1.031251,-0.429824,0.289664,-0.420480,-3.360000,-7.840000,0.000000,1711268323041,Right
705,543,849,0.058594,-0.117188,1.031251,-0.429824,0.289664,-0.420480,-3.360000,-7.840000,0.000000,1711268323044,Right
697,772,710,-0.101563,0.105469,0.988282,-0.009344,0.177536,-0.626048,-8.960000,-2.240000,-8.960000,1711268323052,Left
697,772,710,-0.101563,0.105469,0.988282,-0.009344,0.177536,-0.626048,-8.960000,-2.240000,-8.960000,1711268323053,Left
695,772,711,-0.105469,0.105469,0.988282,-0.009344,0.186880,-0.635392,-8.960000,-2.240000,-8.960000,1711268323054,Left
695,772,711,-0.105469,0.105469,0.988282,-0.009344,0.186880,-0.635392,-8.960000,-2.240000,-8.960000,1711268323056,Left
704,540,852,0.058594,-0.117188,1.031251,-0.429824,0.289664,-0.420480,-3.360000,-7.840000,0.000000,1711268323063,Right
704,540,852,0.058594,-0.117188,1.031251,-0.429824,0.289664,-0.420480,-3.360000,-7.840000,0.000000,1711268323065,Right
695,774,709,-0.101563,0.105469,0.992188,-0.009344,0.177536,-0.626048,-8.960000,-2.240000,-8.960000,1711268323074,Left
695,774,709,-0.101563,0.105469,0.992188,-0.009344,0.177536,-0.626048,-8.960000,-2.240000,-8.960000,1711268323077,Left
704,541,851,0.054688,-0.113281,1.027344,-0.429824,0.299008,-0.411136,-3.360000,-7.840000,0.000000,1711268323084,Right
704,541,851,0.054688,-0.113281,1.027344,-0.429824,0.299008,-0.411136,-3.360000,-7.840000,0.000000,1711268323089,Right
697,774,711,-0.101563,0.101563,0.988282,-0.009344,0.186880,-0.626048,-8.960000,-2.240000,-8.960000,1711268323096,Left
697,774,711,-0.101563,0.101563,0.988282,-0.009344,0.186880,-0.626048,-8.960000,-2.240000,-8.960000,1711268323098,Left
704,542,850,0.058594,-0.117188,1.031251,-0.429824,0.299008,-0.420480,-3.360000,-7.840000,0.000000,1711268323105,Right
704,542,850,0.058594,-0.117188,1.031251,-0.429824,0.299008,-0.420480,-3.360000,-7.840000,0.000000,1711268323107,Right
696,772,711,-0.101563,0.105469,0.984376,-0.009344,0.186880,-0.626048,-8.960000,-2.240000,-8.960000,1711268323116,Left
696,772,711,-0.101563,0.105469,0.984376,-0.009344,0.186880,-0.626048,-8.960000,-2.240000,-8.960000,1711268323118,Left
706,543,849,0.062500,-0.117188,1.027344,-0.420480,0.299008,-0.420480,-3.360000,-7.840000,0.000000,1711268323127,Right
706,543,849,0.062500,-0.117188,1.027344,-0.420480,0.299008,-0.420480,-3.360000,-7.840000,0.000000,1711268323131,Right
696,772,710,-0.097656,0.101563,0.984376,-0.018688,0.177536,-0.626048,-8.960000,-2.240000,-10.080000,1711268323138,Left
696,772,710,-0.097656,0.101563,0.984376,-0.018688,0.177536,-0.626048,-8.960000,-2.240000,-10.080000,1711268323140,Left
705,541,851,0.058594,-0.117188,1.027344,-0.420480,0.289664,-0.411136,-3.360000,-7.840000,0.000000,1711268323148,Right
705,541,851,0.058594,-0.117188,1.027344,-0.420480,0.289664,-0.411136,-3.360000,-7.840000,0.000000,1711268323150,Right
696,773,711,-0.105469,0.105469,0.988282,-0.009344,0.177536,-0.635392,-8.960000,-2.240000,-8.960000,1711268323159,Left
696,773,711,-0.105469,0.105469,0.988282,-0.009344,0.177536,-0.635392,-8.960000,-2.240000,-8.960000,1711268323162,Left
706,544,850,0.054688,-0.117188,1.027344,-0.429824,0.289664,-0.401792,-3.360000,-7.840000,0.000000,1711268323169,Right
706,544,850,0.054688,-0.117188,1.027344,-0.429824,0.289664,-0.401792,-3.360000,-7.840000,0.000000,1711268323172,Right
697,773,712,-0.101563,0.101563,0.988282,-0.009344,0.177536,-0.626048,-8.960000,-2.240000,-8.960000,1711268323181,Left
697,773,712,-0.101563,0.101563,0.988282,-0.009344,0.177536,-0.626048,-8.960000,-2.240000,-8.960000,1711268323184,Left
704,542,851,0.058594,-0.117188,1.031251,-0.429824,0.289664,-0.411136,-3.360000,-7.840000,0.000000,1711268323191,Right
704,542,851,0.058594,-0.117188,1.031251,-0.429824,0.289664,-0.411136,-3.360000,-7.840000,0.000000,1711268323194,Right
696,773,712,-0.101563,0.101563,0.988282,-0.009344,0.177536,-0.626048,-8.960000,-2.240000,-8.960000,1711268323201,Left
696,773,712,-0.101563,0.101563,0.988282,-0.009344,0.177536,-0.626048,-8.960000,-2.240000,-8.960000,1711268323204,Left
704,544,852,0.058594,-0.117188,1.031251,-0.429824,0.289664,-0.411136,-3.360000,-7.840000,0.000000,1711268323212,Right
704,544,852,0.058594,-0.117188,1.031251,-0.429824,0.289664,-0.411136,-3.360000,-7.840000,0.000000,1711268323215,Right
696,773,711,-0.105469,0.101563,0.992188,-0.009344,0.177536,-0.626048,-8.960000,-2.240000,-10.080000,1711268323223,Left
696,773,711,-0.105469,0.101563,0.992188,-0.009344,0.177536,-0.626048,-8.960000,-2.240000,-10.080000,1711268323226,Left
704,542,850,0.058594,-0.117188,1.031251,-0.429824,0.289664,-0.429824,-3.360000,-7.840000,0.000000,1711268323233,Right
704,542,850,0.058594,-0.117188,1.031251,-0.429824,0.289664,-0.429824,-3.360000,-7.840000,0.000000,1711268323236,Right
696,773,711,-0.101563,0.105469,0.988282,-0.009344,0.177536,-0.635392,-8.960000,-2.240000,-8.960000,1711268323244,Left
696,773,711,-0.101563,0.105469,0.988282,-0.009344,0.177536,-0.635392,-8.960000,-2.240000,-8.960000,1711268323246,Left
705,542,851,0.058594,-0.117188,1.031251,-0.420480,0.289664,-0.420480,-3.360000,-7.840000,0.000000,1711268323255,Right
705,542,851,0.058594,-0.117188,1.031251,-0.420480,0.289664,-0.420480,-3.360000,-7.840000,0.000000,1711268323259,Right
697,772,711,-0.105469,0.101563,0.988282,-0.009344,0.177536,-0.616704,-8.960000,-2.240000,-8.960000,1711268323265,Left
697,772,711,-0.105469,0.101563,0.988282,-0.009344,0.177536,-0.616704,-8.960000,-2.240000,-8.960000,1711268323267,Left
706,542,850,0.058594,-0.117188,1.027344,-0.429824,0.299008,-0.429824,-3.360000,-7.840000,0.000000,1711268323275,Right
706,542,850,0.058594,-0.117188,1.027344,-0.429824,0.299008,-0.429824,-3.360000,-7.840000,0.000000,1711268323278,Right
695,772,710,-0.101563,0.105469,0.984376,-0.009344,0.177536,-0.626048,-8.960000,-2.240000,-8.960000,1711268323286,Left
695,772,710,-0.101563,0.105469,0.984376,-0.009344,0.177536,-0.626048,-8.960000,-2.240000,-8.960000,1711268323290,Left
706,542,850,0.058594,-0.117188,1.031251,-0.429824,0.289664,-0.429824,-3.360000,-7.840000,0.000000,1711268323297,Right
706,542,850,0.058594,-0.117188,1.031251,-0.429824,0.289664,-0.429824,-3.360000,-7.840000,0.000000,1711268323301,Right
696,773,709,-0.101563,0.101563,0.984376,-0.009344,0.177536,-0.626048,-8.960000,-2.240000,-8.960000,1711268323308,Left
696,773,709,-0.101563,0.101563,0.984376,-0.009344,0.177536,-0.626048,-8.960000,-2.240000,-8.960000,1711268323310,Left
704,542,850,0.054688,-0.117188,1.031251,-0.429824,0.289664,-0.429824,-3.360000,-7.840000,0.000000,1711268323318,Right
704,542,850,0.054688,-0.117188,1.031251,-0.429824,0.289664,-0.429824,-3.360000,-7.840000,0.000000,1711268323320,Right
696,773,711,-0.097656,0.105469,0.988282,-0.009344,0.177536,-0.626048,-8.960000,-2.240000,-8.960000,1711268323329,Left
696,773,711,-0.097656,0.105469,0.988282,-0.009344,0.177536,-0.626048,-8.960000,-2.240000,-8.960000,1711268323332,Left
707,541,850,0.058594,-0.117188,1.031251,-0.429824,0.289664,-0.420480,-3.360000,-7.840000,0.000000,1711268323340,Right
707,541,850,0.058594,-0.117188,1.031251,-0.429824,0.289664,-0.420480,-3.360000,-7.840000,0.000000,1711268323343,Right
696,771,710,-0.101563,0.101563,0.992188,-0.009344,0.177536,-0.635392,-8.960000,-2.240000,-10.080000,1711268323350,Left
696,771,710,-0.101563,0.101563,0.992188,-0.009344,0.177536,-0.635392,-8.960000,-2.240000,-10.080000,1711268323352,Left
706,542,850,0.054688,-0.117188,1.031251,-0.429824,0.299008,-0.420480,-3.360000,-7.840000,0.000000,1711268323360,Right
706,542,850,0.054688,-0.117188,1.031251,-0.429824,0.299008,-0.420480,-3.360000,-7.840000,0.000000,1711268323361,Right
696,772,711,-0.101563,0.105469,0.988282,-0.009344,0.186880,-0.635392,-8.960000,-2.240000,-8.960000,1711268323370,Left
696,772,711,-0.101563,0.105469,0.988282,-0.009344,0.186880,-0.635392,-8.960000,-2.240000,-8.960000,1711268323372,Left
696,773,712,-0.105469,0.105469,0.988282,-0.009344,0.186880,-0.626048,-8.960000,-2.240000,-8.960000,1711268323374,Left
696,773,712,-0.105469,0.105469,0.988282,-0.009344,0.186880,-0.626048,-8.960000,-2.240000,-8.960000,1711268323375,Left
705,542,850,0.058594,-0.117188,1.031251,-0.420480,0.289664,-0.411136,-3.360000,-7.840000,0.000000,1711268323382,Right
705,542,850,0.058594,-0.117188,1.031251,-0.420480,0.289664,-0.411136,-3.360000,-7.840000,0.000000,1711268323383,Right
697,772,711,-0.101563,0.105469,0.992188,-0.009344,0.186880,-0.626048,-8.960000,-2.240000,-8.960000,1711268323393,Left
697,772,711,-0.101563,0.105469,0.992188,-0.009344,0.186880,-0.626048,-8.960000,-2.240000,-8.960000,1711268323396,Left
705,542,850,0.054688,-0.113281,1.027344,-0.420480,0.289664,-0.411136,-3.360000,-7.840000,0.000000,1711268323403,Right
705,542,850,0.054688,-0.113281,1.027344,-0.420480,0.289664,-0.411136,-3.360000,-7.840000,0.000000,1711268323405,Right
696,774,712,-0.101563,0.105469,0.988282,-0.018688,0.177536,-0.626048,-8.960000,-2.240000,-8.960000,1711268323414,Left
696,774,712,-0.101563,0.105469,0.988282,-0.018688,0.177536,-0.626048,-8.960000,-2.240000,-8.960000,1711268323416,Left
704,541,850,0.054688,-0.121094,1.031251,-0.429824,0.289664,-0.411136,-3.360000,-7.840000,0.000000,1711268323424,Right
704,541,850,0.054688,-0.121094,1.031251,-0.429824,0.289664,-0.411136,-3.360000,-7.840000,0.000000,1711268323427,Right
696,773,710,-0.101563,0.105469,0.988282,-0.009344,0.177536,-0.635392,-8.960000,-2.240000,-10.080000,1711268323435,Left
696,773,710,-0.101563,0.105469,0.988282,-0.009344,0.177536,-0.635392,-8.960000,-2.240000,-10.080000,1711268323437,Left
705,542,851,0.058594,-0.117188,1.031251,-0.429824,0.289664,-0.411136,-3.360000,-7.840000,0.000000,1711268323446,Right
705,542,851,0.058594,-0.117188,1.031251,-0.429824,0.289664,-0.411136,-3.360000,-7.840000,0.000000,1711268323449,Right
697,772,710,-0.105469,0.105469,0.988282,-0.009344,0.186880,-0.635392,-8.960000,-2.240000,-8.960000,1711268323457,Left
697,772,710,-0.105469,0.105469,0.988282,-0.009344,0.186880,-0.635392,-8.960000,-2.240000,-8.960000,1711268323460,Left
706,542,852,0.054688,-0.117188,1.031251,-0.420480,0.299008,-0.411136,-3.360000,-7.840000,0.000000,1711268323467,Right
706,542,852,0.054688,-0.117188,1.031251,-0.420480,0.299008,-0.411136,-3.360000,-7.840000,0.000000,1711268323470,Right
696,773,711,-0.101563,0.101563,0.992188,-0.009344,0.177536,-0.635392,-8.960000,-2.240000,-10.080000,1711268323478,Left
696,773,711,-0.101563,0.101563,0.992188,-0.009344,0.177536,-0.635392,-8.960000,-2.240000,-10.080000,1711268323481,Left
705,542,850,0.058594,-0.117188,1.027344,-0.429824,0.280320,-0.420480,-3.360000,-7.840000,0.000000,1711268323488,Right
705,542,850,0.058594,-0.117188,1.027344,-0.429824,0.280320,-0.420480,-3.360000,-7.840000,0.000000,1711268323491,Right
695,772,712,-0.101563,0.101563,0.988282,-0.009344,0.177536,-0.626048,-8.960000,-2.240000,-10.080000,1711268323498,Left
695,772,712,-0.101563,0.101563,0.988282,-0.009344,0.177536,-0.626048,-8.960000,-2.240000,-10.080000,1711268323500,Left
705,541,851,0.054688,-0.113281,1.031251,-0.429824,0.299008,-0.420480,-3.360000,-7.840000,0.000000,1711268323509,Right
705,541,851,0.054688,-0.113281,1.031251,-0.429824,0.299008,-0.420480,-3.360000,-7.840000,0.000000,1711268323513,Right
695,772,711,-0.101563,0.105469,0.988282,-0.009344,0.177536,-0.626048,-8.960000,-2.240000,-8.960000,1711268323520,Left
695,772,711,-0.101563,0.105469,0.988282,-0.009344,0.177536,-0.626048,-8.960000,-2.240000,-8.960000,1711268323523,Left
705,542,850,0.058594,-0.117188,1.035157,-0.420480,0.289664,-0.420480,-3.360000,-7.840000,0.000000,1711268323530,Right
705,542,850,0.058594,-0.117188,1.035157,-0.420480,0.289664,-0.420480,-3.360000,-7.840000,0.000000,1711268323532,Right
697,773,711,-0.097656,0.105469,0.992188,-0.009344,0.177536,-0.635392,-8.960000,-2.240000,-10.080000,1711268323541,Left
697,773,711,-0.097656,0.105469,0.992188,-0.009344,0.177536,-0.635392,-8.960000,-2.240000,-10.080000,1711268323544,Left
704,543,850,0.062500,-0.117188,1.031251,-0.429824,0.289664,-0.411136,-3.360000,-7.840000,0.000000,1711268323552,Right
704,543,850,0.062500,-0.117188,1.031251,-0.429824,0.289664,-0.411136,-3.360000,-7.840000,0.000000,1711268323555,Right
696,773,711,-0.101563,0.105469,0.988282,-0.009344,0.177536,-0.644736,-8.960000,-2.240000,-8.960000,1711268323562,Left
696,773,711,-0.101563,0.105469,0.988282,-0.009344,0.177536,-0.644736,-8.960000,-2.240000,-8.960000,1711268323564,Left
705,540,851,0.058594,-0.121094,1.031251,-0.429824,0.289664,-0.411136,-3.360000,-7.840000,0.000000,1711268323573,Right
705,540,851,0.058594,-0.121094,1.031251,-0.429824,0.289664,-0.411136,-3.360000,-7.840000,0.000000,1711268323575,Right
695,773,712,-0.101563,0.101563,0.988282,-0.009344,0.177536,-0.626048,-8.960000,-2.240000,-8.960000,1711268323584,Left
695,773,712,-0.101563,0.101563,0.988282,-0.009344,0.177536,-0.626048,-8.960000,-2.240000,-8.960000,1711268323587,Left
704,541,851,0.058594,-0.117188,1.031251,-0.429824,0.289664,-0.411136,-3.360000,-7.840000,0.000000,1711268323594,Right
704,541,851,0.058594,-0.117188,1.031251,-0.429824,0.289664,-0.411136,-3.360000,-7.840000,0.000000,1711268323597,Right
697,772,710,-0.101563,0.101563,0.988282,-0.009344,0.177536,-0.626048,-8.960000,-2.240000,-10.080000,1711268323605,Left
697,772,710,-0.101563,0.101563,0.988282,-0.009344,0.177536,-0.626048,-8.960000,-2.240000,-10.080000,1711268323608,Left
706,541,851,0.058594,-0.113281,1.031251,-0.420480,0.289664,-0.411136,-3.360000,-7.840000,0.000000,1711268323616,Right
706,541,851,0.058594,-0.113281,1.031251,-0.420480,0.289664,-0.411136,-3.360000,-7.840000,0.000000,1711268323620,Right
696,773,710,-0.101563,0.101563,0.992188,-0.009344,0.177536,-0.626048,-8.960000,-2.240000,-10.080000,1711268323626,Left
696,773,710,-0.101563,0.101563,0.992188,-0.009344,0.177536,-0.626048,-8.960000,-2.240000,-10.080000,1711268323630,Left
704,542,850,0.058594,-0.117188,1.031251,-0.429824,0.289664,-0.411136,-3.360000,-7.840000,0.000000,1711268323637,Right
704,542,850,0.058594,-0.117188,1.031251,-0.429824,0.289664,-0.411136,-3.360000,-7.840000,0.000000,1711268323642,Right
695,772,710,-0.101563,0.105469,0.988282,-0.009344,0.177536,-0.635392,-8.960000,-2.240000,-10.080000,1711268323648,Left
695,772,710,-0.101563,0.105469,0.988282,-0.009344,0.177536,-0.635392,-8.960000,-2.240000,-10.080000,1711268323651,Left
705,542,850,0.058594,-0.117188,1.031251,-0.420480,0.289664,-0.429824,-3.360000,-7.840000,0.000000,1711268323658,Right
705,542,850,0.058594,-0.117188,1.031251,-0.420480,0.289664,-0.429824,-3.360000,-7.840000,0.000000,1711268323659,Right
696,772,709,-0.101563,0.105469,0.988282,-0.009344,0.177536,-0.635392,-8.960000,-2.240000,-8.960000,1711268323669,Left
696,772,709,-0.101563,0.105469,0.988282,-0.009344,0.177536,-0.635392,-8.960000,-2.240000,-8.960000,1711268323671,Left
705,542,852,0.058594,-0.117188,1.031251,-0.420480,0.289664,-0.429824,-3.360000,-7.840000,0.000000,1711268323680,Right
705,542,852,0.058594,-0.117188,1.031251,-0.420480,0.289664,-0.429824,-3.360000,-7.840000,0.000000,1711268323683,Right
695,771,710,-0.101563,0.101563,0.992188,-0.009344,0.177536,-0.626048,-8.960000,-2.240000,-8.960000,1711268323691,Left
695,771,710,-0.101563,0.101563,0.992188,-0.009344,0.177536,-0.626048,-8.960000,-2.240000,-8.960000,1711268323693,Left
704,541,850,0.058594,-0.117188,1.031251,-0.429824,0.299008,-0.420480,-3.360000,-7.840000,0.000000,1711268323701,Right
704,541,850,0.058594,-0.117188,1.031251,-0.429824,0.299008,-0.420480,-3.360000,-7.840000,0.000000,1711268323704,Right
696,773,710,-0.101563,0.101563,0.988282,-0.009344,0.177536,-0.626048,-8.960000,-2.240000,-10.080000,1711268323712,Left
696,773,710,-0.101563,0.101563,0.988282,-0.009344,0.177536,-0.626048,-8.960000,-2.240000,-10.080000,1711268323716,Left
696,772,710,-0.101563,0.101563,0.992188,-0.018688,0.186880,-0.635392,-8.960000,-2.240000,-8.960000,1711268323720,Left
704,542,849,0.058594,-0.117188,1.027344,-0.429824,0.289664,-0.411136,-3.360000,-7.840000,0.000000,1711268323722,Right
696,772,710,-0.101563,0.101563,0.992188,-0.018688,0.186880,-0.635392,-8.960000,-2.240000,-8.960000,1711268323723,Left
704,542,849,0.058594,-0.117188,1.027344,-0.429824,0.289664,-0.411136,-3.360000,-7.840000,0.000000,1711268323727,Right
695,773,709,-0.101563,0.105469,0.988282,-0.018688,0.186880,-0.635392,-8.960000,-2.240000,-10.080000,1711268323732,Left
695,773,709,-0.101563,0.105469,0.988282,-0.018688,0.186880,-0.635392,-8.960000,-2.240000,-10.080000,1711268323734,Left
705,542,850,0.058594,-0.117188,1.031251,-0.429824,0.299008,-0.411136,-3.360000,-7.840000,0.000000,1711268323743,Right
705,542,850,0.058594,-0.117188,1.031251,-0.429824,0.299008,-0.411136,-3.360000,-7.840000,0.000000,1711268323747,Right
696,772,711,-0.097656,0.101563,0.988282,-0.009344,0.186880,-0.635392,-8.960000,-2.240000,-10.080000,1711268323754,Left
696,772,711,-0.097656,0.101563,0.988282,-0.009344,0.186880,-0.635392,-8.960000,-2.240000,-10.080000,1711268323756,Left
706,543,851,0.058594,-0.117188,1.031251,-0.429824,0.299008,-0.411136,-3.360000,-7.840000,0.000000,1711268323764,Right
706,543,851,0.058594,-0.117188,1.031251,-0.429824,0.299008,-0.411136,-3.360000,-7.840000,0.000000,1711268323767,Right
696,771,710,-0.101563,0.101563,0.988282,-0.009344,0.186880,-0.626048,-8.960000,-2.240000,-8.960000,1711268323776,Left
696,771,710,-0.101563,0.101563,0.988282,-0.009344,0.186880,-0.626048,-8.960000,-2.240000,-8.960000,1711268323779,Left
706,543,851,0.058594,-0.117188,1.031251,-0.429824,0.289664,-0.420480,-3.360000,-7.840000,0.000000,1711268323786,Right
706,543,851,0.058594,-0.117188,1.031251,-0.429824,0.289664,-0.420480,-3.360000,-7.840000,0.000000,1711268323789,Right
697,772,711,-0.105469,0.101563,0.984376,-0.009344,0.186880,-0.626048,-8.960000,-2.240000,-10.080000,1711268323796,Left
697,772,711,-0.105469,0.101563,0.984376,-0.009344,0.186880,-0.626048,-8.960000,-2.240000,-10.080000,1711268323800,Left
707,543,851,0.054688,-0.117188,1.031251,-0.420480,0.289664,-0.420480,-3.360000,-7.840000,0.000000,1711268323808,Right
707,543,851,0.054688,-0.117188,1.031251,-0.420480,0.289664,-0.420480,-3.360000,-7.840000,0.000000,1711268323812,Right
695,772,710,-0.105469,0.105469,0.988282,-0.009344,0.186880,-0.635392,-8.960000,-2.240000,-8.960000,1711268323817,Left
695,772,710,-0.105469,0.105469,0.988282,-0.009344,0.186880,-0.635392,-8.960000,-2.240000,-8.960000,1711268323820,Left
704,541,852,0.058594,-0.117188,1.027344,-0.429824,0.299008,-0.420480,-3.360000,-7.840000,0.000000,1711268323828,Right
704,541,852,0.058594,-0.117188,1.027344,-0.429824,0.299008,-0.420480,-3.360000,-7.840000,0.000000,1711268323830,Right
696,774,710,-0.101563,0.101563,0.988282,-0.009344,0.177536,-0.626048,-8.960000,-3.360000,-8.960000,1711268323839,Left
696,774,710,-0.101563,0.101563,0.988282,-0.009344,0.177536,-0.626048,-8.960000,-3.360000,-8.960000,1711268323841,Left
705,541,851,0.058594,-0.117188,1.031251,-0.429824,0.289664,-0.411136,-3.360000,-7.840000,0.000000,1711268323849,Right
705,541,851,0.058594,-0.117188,1.031251,-0.429824,0.289664,-0.411136,-3.360000,-7.840000,0.000000,1711268323853,Right
696,773,710,-0.101563,0.105469,0.988282,-0.018688,0.186880,-0.626048,-8.960000,-2.240000,-8.960000,1711268323860,Left
696,773,710,-0.101563,0.105469,0.988282,-0.018688,0.186880,-0.626048,-8.960000,-2.240000,-8.960000,1711268323862,Left
705,541,850,0.058594,-0.117188,1.027344,-0.429824,0.289664,-0.420480,-3.360000,-7.840000,0.000000,1711268323871,Right
705,541,850,0.058594,-0.117188,1.027344,-0.429824,0.289664,-0.420480,-3.360000,-7.840000,0.000000,1711268323874,Right
697,773,710,-0.101563,0.105469,0.988282,-0.018688,0.186880,-0.626048,-8.960000,-2.240000,-8.960000,1711268323881,Left
697,773,710,-0.101563,0.105469,0.988282,-0.018688,0.186880,-0.626048,-8.960000,-2.240000,-8.960000,1711268323883,Left
706,542,851,0.058594,-0.121094,1.027344,-0.429824,0.289664,-0.420480,-3.360000,-7.840000,0.000000,1711268323892,Right
706,542,851,0.058594,-0.121094,1.027344,-0.429824,0.289664,-0.420480,-3.360000,-7.840000,0.000000,1711268323894,Right
696,773,712,-0.109375,0.105469,0.988282,-0.018688,0.177536,-0.626048,-8.960000,-2.240000,-8.960000,1711268323903,Left
696,773,712,-0.109375,0.105469,0.988282,-0.018688,0.177536,-0.626048,-8.960000,-2.240000,-8.960000,1711268323905,Left
705,541,852,0.058594,-0.117188,1.031251,-0.420480,0.289664,-0.411136,-3.360000,-7.840000,0.000000,1711268323913,Right
705,541,852,0.058594,-0.117188,1.031251,-0.420480,0.289664,-0.411136,-3.360000,-7.840000,0.000000,1711268323917,Right
696,772,711,-0.105469,0.105469,0.988282,-0.018688,0.177536,-0.635392,-8.960000,-2.240000,-8.960000,1711268323924,Left
696,772,711,-0.105469,0.105469,0.988282,-0.018688,0.177536,-0.635392,-8.960000,-2.240000,-8.960000,1711268323926,Left
706,541,851,0.054688,-0.117188,1.027344,-0.420480,0.289664,-0.411136,-3.360000,-7.840000,0.000000,1711268323934,Right
706,541,851,0.054688,-0.117188,1.027344,-0.420480,0.289664,-0.411136,-3.360000,-7.840000,0.000000,1711268323937,Right
705,543,851,0.058594,-0.117188,1.031251,-0.429824,0.289664,-0.411136,-3.360000,-7.840000,0.000000,1711268323956,Right
705,543,851,0.058594,-0.117188,1.031251,-0.429824,0.289664,-0.411136,-3.360000,-7.840000,0.000000,1711268323960,Right
697,772,710,-0.101563,0.101563,0.992188,-0.009344,0.177536,-0.644736,-8.960000,-2.240000,-10.080000,1711268323966,Left
697,772,710,-0.101563,0.101563,0.992188,-0.009344,0.177536,-0.644736,-8.960000,-2.240000,-10.080000,1711268323970,Left
705,541,850,0.054688,-0.117188,1.035157,-0.420480,0.289664,-0.401792,-3.360000,-7.840000,0.000000,1711268323976,Right
705,541,850,0.054688,-0.117188,1.035157,-0.420480,0.289664,-0.401792,-3.360000,-7.840000,0.000000,1711268323978,Right
697,773,711,-0.101563,0.101563,0.988282,-0.009344,0.177536,-0.644736,-8.960000,-2.240000,-8.960000,1711268323988,Left
697,773,711,-0.101563,0.101563,0.988282,-0.009344,0.177536,-0.644736,-8.960000,-2.240000,-8.960000,1711268323990,Left
704,541,850,0.058594,-0.117188,1.031251,-0.429824,0.289664,-0.420480,-3.360000,-7.840000,0.000000,1711268323998,Right
704,541,850,0.058594,-0.117188,1.031251,-0.429824,0.289664,-0.420480,-3.360000,-7.840000,0.000000,1711268324001,Right
696,772,710,-0.105469,0.101563,0.992188,-0.018688,0.177536,-0.626048,-8.960000,-2.240000,-8.960000,1711268324009,Left
696,772,710,-0.105469,0.101563,0.992188,-0.018688,0.177536,-0.626048,-8.960000,-2.240000,-8.960000,1711268324013,Left
705,542,849,0.058594,-0.113281,1.035157,-0.429824,0.289664,-0.420480,-3.360000,-7.840000,0.000000,1711268324020,Right
705,542,849,0.058594,-0.113281,1.035157,-0.429824,0.289664,-0.420480,-3.360000,-7.840000,0.000000,1711268324025,Right
697,773,711,-0.101563,0.101563,0.988282,-0.009344,0.186880,-0.644736,-8.960000,-2.240000,-10.080000,1711268324032,Left
697,773,711,-0.101563,0.101563,0.988282,-0.009344,0.186880,-0.644736,-8.960000,-2.240000,-10.080000,1711268324035,Left
706,543,850,0.058594,-0.117188,1.027344,-0.429824,0.289664,-0.420480,-3.360000,-7.840000,0.000000,1711268324041,Right
706,543,850,0.058594,-0.117188,1.027344,-0.429824,0.289664,-0.420480,-3.360000,-7.840000,0.000000,1711268324044,Right
696,773,710,-0.101563,0.105469,0.992188,-0.009344,0.177536,-0.626048,-8.960000,-2.240000,-8.960000,1711268324052,Left
696,773,710,-0.101563,0.105469,0.992188,-0.009344,0.177536,-0.626048,-8.960000,-2.240000,-8.960000,1711268324055,Left
704,543,851,0.058594,-0.121094,1.031251,-0.429824,0.299008,-0.401792,-3.360000,-7.840000,0.000000,1711268324062,Right
704,543,851,0.058594,-0.121094,1.031251,-0.429824,0.299008,-0.401792,-3.360000,-7.840000,0.000000,1711268324067,Right
696,772,709,-0.105469,0.105469,0.988282,-0.009344,0.177536,-0.626048,-8.960000,-2.240000,-8.960000,1711268324072,Left
697,773,712,-0.101563,0.101563,0.988282,-0.009344,0.186880,-0.635392,-8.960000,-2.240000,-8.960000,1711268324076,Left
696,772,709,-0.105469,0.105469,0.988282,-0.009344,0.177536,-0.626048,-8.960000,-2.240000,-8.960000,1711268324077,Left
697,773,712,-0.101563,0.101563,0.988282,-0.009344,0.186880,-0.635392,-8.960000,-2.240000,-8.960000,1711268324078,Left
705,541,851,0.058594,-0.117188,1.031251,-0.429824,0.289664,-0.420480,-3.360000,-7.840000,0.000000,1711268324082,Right
705,541,851,0.058594,-0.117188,1.031251,-0.429824,0.289664,-0.420480,-3.360000,-7.840000,0.000000,1711268324084,Right
697,773,711,-0.101563,0.105469,0.988282,-0.009344,0.177536,-0.626048,-8.960000,-2.240000,-8.960000,1711268324093,Left
697,773,711,-0.101563,0.105469,0.988282,-0.009344,0.177536,-0.626048,-8.960000,-2.240000,-8.960000,1711268324097,Left
705,541,851,0.058594,-0.113281,1.027344,-0.420480,0.289664,-0.401792,-3.360000,-7.840000,0.000000,1711268324105,Right
705,541,851,0.058594,-0.113281,1.027344,-0.420480,0.289664,-0.401792,-3.360000,-7.840000,0.000000,1711268324108,Right
697,772,711,-0.101563,0.105469,0.988282,-0.009344,0.177536,-0.626048,-8.960000,-2.240000,-8.960000,1711268324115,Left
697,772,711,-0.101563,0.105469,0.988282,-0.009344,0.177536,-0.626048,-8.960000,-2.240000,-8.960000,1711268324117,Left
705,542,850,0.058594,-0.117188,1.035157,-0.429824,0.289664,-0.429824,-3.360000,-7.840000,0.000000,1711268324126,Right
705,542,850,0.058594,-0.117188,1.035157,-0.429824,0.289664,-0.429824,-3.360000,-7.840000,0.000000,1711268324129,Right
696,772,712,-0.105469,0.105469,0.988282,-0.009344,0.186880,-0.626048,-8.960000,-2.240000,-8.960000,1711268324136,Left
696,772,712,-0.105469,0.105469,0.988282,-0.009344,0.186880,-0.626048,-8.960000,-2.240000,-8.960000,1711268324139,Left
705,542,852,0.058594,-0.117188,1.031251,-0.429824,0.289664,-0.420480,-3.360000,-7.840000,0.000000,1711268324147,Right
705,542,852,0.058594,-0.117188,1.031251,-0.429824,0.289664,-0.420480,-3.360000,-7.840000,0.000000,1711268324149,Right
698,773,710,-0.101563,0.105469,0.988282,-0.009344,0.186880,-0.626048,-8.960000,-2.240000,-10.080000,1711268324158,Left
698,773,710,-0.101563,0.105469,0.988282,-0.009344,0.186880,-0.626048,-8.960000,-2.240000,-10.080000,1711268324161,Left
704,542,852,0.054688,-0.117188,1.027344,-0.420480,0.299008,-0.420480,-3.360000,-7.840000,0.000000,1711268324168,Right
704,542,852,0.054688,-0.117188,1.027344,-0.420480,0.299008,-0.420480,-3.360000,-7.840000,0.000000,1711268324172,Right
697,772,710,-0.105469,0.105469,0.988282,-0.009344,0.177536,-0.654080,-8.960000,-2.240000,-8.960000,1711268324179,Left
697,772,710,-0.105469,0.105469,0.988282,-0.009344,0.177536,-0.654080,-8.960000,-2.240000,-8.960000,1711268324182,Left
705,541,851,0.062500,-0.117188,1.031251,-0.429824,0.289664,-0.401792,-3.360000,-7.840000,0.000000,1711268324190,Right
705,541,851,0.062500,-0.117188,1.031251,-0.429824,0.289664,-0.401792,-3.360000,-7.840000,0.000000,1711268324194,Right
696,772,710,-0.101563,0.101563,0.988282,-0.018688,0.177536,-0.635392,-8.960000,-2.240000,-10.080000,1711268324200,Left
696,772,710,-0.101563,0.101563,0.988282,-0.018688,0.177536,-0.635392,-8.960000,-2.240000,-10.080000,1711268324202,Left
704,542,850,0.058594,-0.117188,1.027344,-0.429824,0.289664,-0.401792,-3.360000,-7.840000,0.000000,1711268324210,Right
704,542,850,0.058594,-0.117188,1.027344,-0.429824,0.289664,-0.401792,-3.360000,-7.840000,0.000000,1711268324213,Right
697,772,710,-0.105469,0.101563,0.988282,-0.009344,0.186880,-0.644736,-8.960000,-2.240000,-8.960000,1711268324221,Left
697,772,710,-0.105469,0.101563,0.988282,-0.009344,0.186880,-0.644736,-8.960000,-2.240000,-8.960000,1711268324225,Left
705,542,852,0.058594,-0.113281,1.027344,-0.429824,0.289664,-0.420480,-3.360000,-7.840000,0.000000,1711268324232,Right
705,542,852,0.058594,-0.113281,1.027344,-0.429824,0.289664,-0.420480,-3.360000,-7.840000,0.000000,1711268324236,Right
697,774,711,-0.101563,0.105469,0.988282,-0.009344,0.186880,-0.644736,-8.960000,-2.240000,-10.080000,1711268324243,Left
697,774,711,-0.101563,0.105469,0.988282,-0.009344,0.186880,-0.644736,-8.960000,-2.240000,-10.080000,1711268324245,Left
706,542,851,0.058594,-0.113281,1.027344,-0.420480,0.289664,-0.411136,-3.360000,-7.840000,0.000000,1711268324253,Right
706,542,851,0.058594,-0.113281,1.027344,-0.420480,0.289664,-0.411136,-3.360000,-7.840000,0.000000,1711268324256,Right
697,773,710,-0.101563,0.105469,0.992188,-0.009344,0.186880,-0.626048,-8.960000,-2.240000,-8.960000,1711268324265,Left
697,773,710,-0.101563,0.105469,0.992188,-0.009344,0.186880,-0.626048,-8.960000,-2.240000,-8.960000,1711268324268,Left
705,542,850,0.054688,-0.117188,1.035157,-0.429824,0.289664,-0.411136,-3.360000,-7.840000,0.000000,1711268324274,Right
705,542,850,0.054688,-0.117188,1.035157,-0.429824,0.289664,-0.411136,-3.360000,-7.840000,0.000000,1711268324276,Right
695,773,711,-0.105469,0.105469,0.988282,-0.018688,0.186880,-0.635392,-8.960000,-2.240000,-10.080000,1711268324285,Left
695,773,711,-0.105469,0.105469,0.988282,-0.018688,0.186880,-0.635392,-8.960000,-2.240000,-10.080000,1711268324286,Left
705,542,850,0.054688,-0.117188,1.031251,-0.429824,0.289664,-0.401792,-3.360000,-7.840000,0.000000,1711268324295,Right
705,542,850,0.054688,-0.117188,1.031251,-0.429824,0.289664,-0.401792,-3.360000,-7.840000,0.000000,1711268324298,Right
696,772,709,-0.097656,0.101563,0.988282,-0.009344,0.186880,-0.644736,-8.960000,-2.240000,-10.080000,1711268324306,Left
696,772,709,-0.097656,0.101563,0.988282,-0.009344,0.186880,-0.644736,-8.960000,-2.240000,-10.080000,1711268324308,Left
706,540,852,0.058594,-0.121094,1.027344,-0.429824,0.289664,-0.401792,-3.360000,-7.840000,0.000000,1711268324317,Right
706,540,852,0.058594,-0.121094,1.027344,-0.429824,0.289664,-0.401792,-3.360000,-7.840000,0.000000,1711268324319,Right
696,772,709,-0.105469,0.105469,0.988282,-0.009344,0.177536,-0.635392,-8.960000,-2.240000,-10.080000,1711268324328,Left
696,772,709,-0.105469,0.105469,0.988282,-0.009344,0.177536,-0.635392,-8.960000,-2.240000,-10.080000,1711268324331,Left
704,541,850,0.054688,-0.113281,1.027344,-0.429824,0.299008,-0.420480,-3.360000,-7.840000,0.000000,1711268324338,Right
704,541,850,0.054688,-0.113281,1.027344,-0.429824,0.299008,-0.420480,-3.360000,-7.840000,0.000000,1711268324341,Right
697,773,711,-0.097656,0.105469,0.988282,-0.009344,0.177536,-0.635392,-8.960000,-2.240000,-10.080000,1711268324349,Left
697,773,711,-0.097656,0.105469,0.988282,-0.009344,0.177536,-0.635392,-8.960000,-2.240000,-10.080000,1711268324353,Left
705,542,849,0.058594,-0.117188,1.031251,-0.429824,0.299008,-0.401792,-3.360000,-7.840000,0.000000,1711268324359,Right
705,542,849,0.058594,-0.117188,1.031251,-0.429824,0.299008,-0.401792,-3.360000,-7.840000,0.000000,1711268324362,Right
697,772,711,-0.101563,0.105469,0.988282,-0.009344,0.177536,-0.635392,-8.960000,-2.240000,-8.960000,1711268324370,Left
697,772,711,-0.101563,0.105469,0.988282,-0.009344,0.177536,-0.635392,-8.960000,-2.240000,-8.960000,1711268324373,Left
704,542,851,0.058594,-0.117188,1.031251,-0.429824,0.289664,-0.411136,-3.360000,-7.840000,0.000000,1711268324380,Right
704,542,851,0.058594,-0.117188,1.031251,-0.429824,0.289664,-0.411136,-3.360000,-7.840000,0.000000,1711268324384,Right
697,773,709,-0.105469,0.105469,0.992188,-0.009344,0.177536,-0.626048,-8.960000,-2.240000,-10.080000,1711268324391,Left
697,773,709,-0.105469,0.105469,0.992188,-0.009344,0.177536,-0.626048,-8.960000,-2.240000,-10.080000,1711268324395,Left
695,773,711,-0.101563,0.101563,0.988282,-0.009344,0.186880,-0.644736,-8.960000,-2.240000,-8.960000,1711268324399,Left
695,773,711,-0.101563,0.101563,0.988282,-0.009344,0.186880,-0.644736,-8.960000,-2.240000,-8.960000,1711268324401,Left
704,542,849,0.058594,-0.117188,1.031251,-0.429824,0.289664,-0.411136,-3.360000,-7.840000,0.000000,1711268324402,Right
704,542,849,0.058594,-0.117188,1.031251,-0.429824,0.289664,-0.411136,-3.360000,-7.840000,0.000000,1711268324404,Right
695,774,710,-0.105469,0.105469,0.988282,-0.009344,0.186880,-0.644736,-8.960000,-2.240000,-8.960000,1711268324412,Left
695,774,710,-0.105469,0.105469,0.988282,-0.009344,0.186880,-0.644736,-8.960000,-2.240000,-8.960000,1711268324414,Left
705,542,851,0.058594,-0.117188,1.027344,-0.429824,0.289664,-0.411136,-3.360000,-7.840000,0.000000,1711268324423,Right
705,542,851,0.058594,-0.117188,1.027344,-0.429824,0.289664,-0.411136,-3.360000,-7.840000,0.000000,1711268324427,Right
696,774,710,-0.105469,0.105469,0.988282,-0.009344,0.177536,-0.635392,-8.960000,-2.240000,-10.080000,1711268324434,Left
696,774,710,-0.105469,0.105469,0.988282,-0.009344,0.177536,-0.635392,-8.960000,-2.240000,-10.080000,1711268324435,Left
705,542,849,0.058594,-0.117188,1.031251,-0.429824,0.299008,-0.411136,-3.360000,-7.840000,0.000000,1711268324444,Right
705,542,849,0.058594,-0.117188,1.031251,-0.429824,0.299008,-0.411136,-3.360000,-7.840000,0.000000,1711268324448,Right
695,772,710,-0.105469,0.101563,0.984376,-0.009344,0.186880,-0.626048,-8.960000,-2.240000,-8.960000,1711268324455,Left
695,772,710,-0.105469,0.101563,0.984376,-0.009344,0.186880,-0.626048,-8.960000,-2.240000,-8.960000,1711268324457,Left
705,543,851,0.058594,-0.113281,1.031251,-0.429824,0.299008,-0.401792,-3.360000,-7.840000,0.000000,1711268324465,Right
705,543,851,0.058594,-0.113281,1.031251,-0.429824,0.299008,-0.401792,-3.360000,-7.840000,0.000000,1711268324468,Right
697,773,711,-0.105469,0.105469,0.988282,-0.009344,0.186880,-0.626048,-8.960000,-2.240000,-8.960000,1711268324476,Left
697,773,711,-0.105469,0.105469,0.988282,-0.009344,0.186880,-0.626048,-8.960000,-2.240000,-8.960000,1711268324479,Left
705,541,850,0.054688,-0.113281,1.027344,-0.429824,0.299008,-0.420480,-3.360000,-7.840000,0.000000,1711268324487,Right
705,541,850,0.054688,-0.113281,1.027344,-0.429824,0.299008,-0.420480,-3.360000,-7.840000,0.000000,1711268324491,Right
696,772,711,-0.105469,0.101563,0.992188,-0.009344,0.177536,-0.644736,-8.960000,-2.240000,-8.960000,1711268324497,Left
696,772,711,-0.105469,0.101563,0.992188,-0.009344,0.177536,-0.644736,-8.960000,-2.240000,-8.960000,1711268324499,Left
704,541,849,0.054688,-0.117188,1.027344,-0.429824,0.299008,-0.420480,-3.360000,-7.840000,0.000000,1711268324508,Right
704,541,849,0.054688,-0.117188,1.027344,-0.429824,0.299008,-0.420480,-3.360000,-7.840000,0.000000,1711268324511,Right
695,772,711,-0.101563,0.105469,0.988282,-0.018688,0.177536,-0.635392,-8.960000,-2.240000,-10.080000,1711268324519,Left
695,772,711,-0.101563,0.105469,0.988282,-0.018688,0.177536,-0.635392,-8.960000,-2.240000,-10.080000,1711268324522,Left
708,541,849,0.054688,-0.117188,1.031251,-0.429824,0.299008,-0.411136,-3.360000,-7.840000,0.000000,1711268324529,Right
708,541,849,0.054688,-0.117188,1.031251,-0.429824,0.299008,-0.411136,-3.360000,-7.840000,0.000000,1711268324532,Right
698,772,711,-0.101563,0.105469,0.988282,-0.009344,0.177536,-0.635392,-8.960000,-2.240000,-8.960000,1711268324540,Left
698,772,711,-0.101563,0.105469,0.988282,-0.009344,0.177536,-0.635392,-8.960000,-2.240000,-8.960000,1711268324542,Left
706,542,851,0.058594,-0.117188,1.035157,-0.429824,0.299008,-0.411136,-3.360000,-7.840000,0.000000,1711268324551,Right
706,542,851,0.058594,-0.117188,1.035157,-0.429824,0.299008,-0.411136,-3.360000,-7.840000,0.000000,1711268324555,Right
696,772,710,-0.101563,0.105469,0.988282,-0.009344,0.177536,-0.635392,-8.960000,-2.240000,-8.960000,1711268324561,Left
696,772,710,-0.101563,0.105469,0.988282,-0.009344,0.177536,-0.635392,-8.960000,-2.240000,-8.960000,1711268324563,Left
705,541,849,0.058594,-0.117188,1.031251,-0.429824,0.299008,-0.411136,-3.360000,-7.840000,0.000000,1711268324571,Right
705,541,849,0.058594,-0.117188,1.031251,-0.429824,0.299008,-0.411136,-3.360000,-7.840000,0.000000,1711268324573,Right
696,772,711,-0.101563,0.097656,0.988282,-0.009344,0.177536,-0.635392,-8.960000,-2.240000,-10.080000,1711268324582,Left
696,772,711,-0.101563,0.097656,0.988282,-0.009344,0.177536,-0.635392,-8.960000,-2.240000,-10.080000,1711268324585,Left
704,542,851,0.058594,-0.117188,1.031251,-0.429824,0.299008,-0.429824,-3.360000,-7.840000,0.000000,1711268324593,Right
704,542,851,0.058594,-0.117188,1.031251,-0.429824,0.299008,-0.429824,-3.360000,-7.840000,0.000000,1711268324596,Right
696,773,710,-0.101563,0.105469,0.992188,-0.009344,0.177536,-0.654080,-8.960000,-2.240000,-8.960000,1711268324604,Left
696,773,710,-0.101563,0.105469,0.992188,-0.009344,0.177536,-0.654080,-8.960000,-2.240000,-8.960000,1711268324605,Left
704,542,851,0.058594,-0.117188,1.031251,-0.429824,0.289664,-0.411136,-3.360000,-7.840000,0.000000,1711268324614,Right
704,542,851,0.058594,-0.117188,1.031251,-0.429824,0.289664,-0.411136,-3.360000,-7.840000,0.000000,1711268324618,Right
695,771,710,-0.105469,0.105469,0.996094,-0.009344,0.177536,-0.635392,-8.960000,-2.240000,-8.960000,1711268324625,Left
695,771,710,-0.105469,0.105469,0.996094,-0.009344,0.177536,-0.635392,-8.960000,-2.240000,-8.960000,1711268324628,Left
704,542,851,0.054688,-0.117188,1.031251,-0.429824,0.299008,-0.420480,-3.360000,-7.840000,0.000000,1711268324635,Right
704,542,851,0.054688,-0.117188,1.031251,-0.429824,0.299008,-0.420480,-3.360000,-7.840000,0.000000,1711268324637,Right
695,772,710,-0.105469,0.101563,0.988282,-0.009344,0.177536,-0.635392,-8.960000,-2.240000,-8.960000,1711268324646,Left
695,772,710,-0.105469,0.101563,0.988282,-0.009344,0.177536,-0.635392,-8.960000,-2.240000,-8.960000,1711268324649,Left
705,542,849,0.058594,-0.117188,1.031251,-0.429824,0.289664,-0.429824,-3.360000,-7.840000,0.000000,1711268324657,Right
705,542,849,0.058594,-0.117188,1.031251,-0.429824,0.289664,-0.429824,-3.360000,-7.840000,0.000000,1711268324661,Right
696,773,710,-0.101563,0.105469,0.992188,-0.018688,0.177536,-0.635392,-8.960000,-2.240000,-8.960000,1711268324668,Left
696,773,710,-0.101563,0.105469,0.992188,-0.018688,0.177536,-0.635392,-8.960000,-2.240000,-8.960000,1711268324671,Left
704,542,851,0.058594,-0.117188,1.027344,-0.429824,0.289664,-0.429824,-3.360000,-7.840000,0.000000,1711268324678,Right
704,542,851,0.058594,-0.117188,1.027344,-0.429824,0.289664,-0.429824,-3.360000,-7.840000,0.000000,1711268324683,Right
695,773,709,-0.105469,0.101563,0.992188,-0.018688,0.177536,-0.635392,-8.960000,-2.240000,-10.080000,1711268324689,Left
695,773,709,-0.105469,0.101563,0.992188,-0.018688,0.177536,-0.635392,-8.960000,-2.240000,-10.080000,1711268324692,Left
705,542,850,0.058594,-0.117188,1.031251,-0.429824,0.289664,-0.429824,-3.360000,-7.840000,0.000000,1711268324699,Right
705,542,850,0.058594,-0.117188,1.031251,-0.429824,0.289664,-0.429824,-3.360000,-7.840000,0.000000,1711268324702,Right
696,772,712,-0.101563,0.101563,0.992188,-0.018688,0.177536,-0.635392,-8.960000,-2.240000,-8.960000,1711268324710,Left
696,772,712,-0.101563,0.101563,0.992188,-0.018688,0.177536,-0.635392,-8.960000,-2.240000,-8.960000,1711268324714,Left
696,772,711,-0.101563,0.101563,0.992188,-0.018688,0.177536,-0.635392,-8.960000,-2.240000,-8.960000,1711268324716,Left
696,772,711,-0.101563,0.101563,0.992188,-0.018688,0.177536,-0.635392,-8.960000,-2.240000,-8.960000,1711268324718,Left
705,542,851,0.058594,-0.117188,1.031251,-0.429824,0.289664,-0.420480,-3.360000,-7.840000,0.000000,1711268324721,Right
705,542,851,0.058594,-0.117188,1.031251,-0.429824,0.289664,-0.420480,-3.360000,-7.840000,0.000000,1711268324724,Right
696,772,710,-0.101563,0.097656,0.988282,-0.018688,0.177536,-0.635392,-8.960000,-2.240000,-8.960000,1711268324731,Left
696,772,710,-0.101563,0.097656,0.988282,-0.018688,0.177536,-0.635392,-8.960000,-2.240000,-8.960000,1711268324733,Left
705,543,850,0.058594,-0.117188,1.031251,-0.429824,0.299008,-0.420480,-3.360000,-7.840000,0.000000,1711268324742,Right
705,543,850,0.058594,-0.117188,1.031251,-0.429824,0.299008,-0.420480,-3.360000,-7.840000,0.000000,1711268324745,Right
696,772,710,-0.105469,0.105469,0.988282,-0.009344,0.177536,-0.635392,-8.960000,-2.240000,-10.080000,1711268324752,Left
696,772,710,-0.105469,0.105469,0.988282,-0.009344,0.177536,-0.635392,-8.960000,-2.240000,-10.080000,1711268324754,Left
706,542,850,0.058594,-0.117188,1.031251,-0.429824,0.299008,-0.420480,-3.360000,-7.840000,0.000000,1711268324763,Right
706,542,850,0.058594,-0.117188,1.031251,-0.429824,0.299008,-0.420480,-3.360000,-7.840000,0.000000,1711268324765,Right
695,772,710,-0.105469,0.101563,0.988282,-0.009344,0.177536,-0.635392,-8.960000,-2.240000,-8.960000,1711268324773,Left
695,772,710,-0.105469,0.101563,0.988282,-0.009344,0.177536,-0.635392,-8.960000,-2.240000,-8.960000,1711268324777,Left
705,542,849,0.054688,-0.117188,1.027344,-0.429824,0.289664,-0.420480,-3.360000,-7.840000,0.000000,1711268324784,Right
705,542,849,0.054688,-0.117188,1.027344,-0.429824,0.289664,-0.420480,-3.360000,-7.840000,0.000000,1711268324789,Right
696,771,711,-0.101563,0.105469,0.988282,-0.009344,0.177536,-0.635392,-8.960000,-2.240000,-8.960000,1711268324795,Left
696,771,711,-0.101563,0.105469,0.988282,-0.009344,0.177536,-0.635392,-8.960000,-2.240000,-8.960000,1711268324797,Left
704,542,849,0.058594,-0.117188,1.031251,-0.420480,0.289664,-0.411136,-3.360000,-7.840000,0.000000,1711268324805,Right
704,542,849,0.058594,-0.117188,1.031251,-0.420480,0.289664,-0.411136,-3.360000,-7.840000,0.000000,1711268324809,Right
697,772,711,-0.101563,0.101563,0.988282,-0.009344,0.177536,-0.635392,-8.960000,-2.240000,-8.960000,1711268324817,Left
697,772,711,-0.101563,0.101563,0.988282,-0.009344,0.177536,-0.635392,-8.960000,-2.240000,-8.960000,1711268324820,Left
706,543,852,0.058594,-0.117188,1.031251,-0.429824,0.289664,-0.411136,-3.360000,-7.840000,0.000000,1711268324827,Right
706,543,852,0.058594,-0.117188,1.031251,-0.429824,0.289664,-0.411136,-3.360000,-7.840000,0.000000,1711268324830,Right
696,773,710,-0.101563,0.105469,0.992188,-0.009344,0.177536,-0.635392,-8.960000,-2.240000,-8.960000,1711268324838,Left
696,773,710,-0.101563,0.105469,0.992188,-0.009344,0.177536,-0.635392,-8.960000,-2.240000,-8.960000,1711268324841,Left
705,541,852,0.058594,-0.117188,1.027344,-0.429824,0.289664,-0.420480,-3.360000,-7.840000,0.000000,1711268324848,Right
705,541,852,0.058594,-0.117188,1.027344,-0.429824,0.289664,-0.420480,-3.360000,-7.840000,0.000000,1711268324851,Right
697,772,711,-0.101563,0.105469,0.984376,-0.009344,0.186880,-0.635392,-8.960000,-2.240000,-8.960000,1711268324858,Left
697,772,711,-0.101563,0.105469,0.984376,-0.009344,0.186880,-0.635392,-8.960000,-2.240000,-8.960000,1711268324860,Left
706,542,851,0.062500,-0.117188,1.031251,-0.429824,0.289664,-0.411136,-3.360000,-7.840000,0.000000,1711268324869,Right
706,542,851,0.062500,-0.117188,1.031251,-0.429824,0.289664,-0.411136,-3.360000,-7.840000,0.000000,1711268324873,Right
697,772,710,-0.101563,0.101563,0.992188,-0.009344,0.177536,-0.626048,-8.960000,-2.240000,-8.960000,1711268324881,Left
697,772,710,-0.101563,0.101563,0.992188,-0.009344,0.177536,-0.626048,-8.960000,-2.240000,-8.960000,1711268324884,Left
705,542,851,0.058594,-0.117188,1.031251,-0.429824,0.289664,-0.411136,-3.360000,-7.840000,0.000000,1711268324891,Right
705,542,851,0.058594,-0.117188,1.031251,-0.429824,0.289664,-0.411136,-3.360000,-7.840000,0.000000,1711268324894,Right
696,772,710,-0.101563,0.101563,0.988282,-0.009344,0.177536,-0.626048,-8.960000,-2.240000,-8.960000,1711268324901,Left
696,772,710,-0.101563,0.101563,0.988282,-0.009344,0.177536,-0.626048,-8.960000,-2.240000,-8.960000,1711268324905,Left
704,542,851,0.058594,-0.117188,1.031251,-0.429824,0.299008,-0.429824,-3.360000,-7.840000,0.000000,1711268324912,Right
704,542,851,0.058594,-0.117188,1.031251,-0.429824,0.299008,-0.429824,-3.360000,-7.840000,0.000000,1711268324915,Right
696,772,710,-0.101563,0.101563,0.984376,-0.009344,0.177536,-0.626048,-8.960000,-2.240000,-8.960000,1711268324923,Left
696,772,710,-0.101563,0.101563,0.984376,-0.009344,0.177536,-0.626048,-8.960000,-2.240000,-8.960000,1711268324925,Left
703,542,850,0.058594,-0.121094,1.031251,-0.429824,0.299008,-0.429824,-3.360000,-7.840000,0.000000,1711268324933,Right
703,542,850,0.058594,-0.121094,1.031251,-0.429824,0.299008,-0.429824,-3.360000,-7.840000,0.000000,1711268324937,Right
704,541,850,0.054688,-0.113281,1.027344,-0.420480,0.289664,-0.411136,-3.360000,-7.840000,0.000000,1711268324955,Right
704,541,850,0.054688,-0.113281,1.027344,-0.420480,0.289664,-0.411136,-3.360000,-7.840000,0.000000,1711268324960,Right
697,773,709,-0.101563,0.105469,0.984376,-0.009344,0.177536,-0.635392,-8.960000,-2.240000,-10.080000,1711268324965,Left
697,773,709,-0.101563,0.105469,0.984376,-0.009344,0.177536,-0.635392,-8.960000,-2.240000,-10.080000,1711268324968,Left
704,542,851,0.058594,-0.117188,1.031251,-0.429824,0.289664,-0.420480,-3.360000,-7.840000,0.000000,1711268324975,Right
704,542,851,0.058594,-0.117188,1.031251,-0.429824,0.289664,-0.420480,-3.360000,-7.840000,0.000000,1711268324978,Right
696,771,711,-0.105469,0.101563,0.988282,-0.009344,0.177536,-0.635392,-8.960000,-2.240000,-8.960000,1711268324986,Left
696,771,711,-0.105469,0.101563,0.988282,-0.009344,0.177536,-0.635392,-8.960000,-2.240000,-8.960000,1711268324988,Left
705,541,851,0.058594,-0.117188,1.027344,-0.429824,0.289664,-0.411136,-3.360000,-7.840000,0.000000,1711268324996,Right
705,541,851,0.058594,-0.117188,1.027344,-0.429824,0.289664,-0.411136,-3.360000,-7.840000,0.000000,1711268325000,Right
697,773,710,-0.101563,0.105469,0.992188,-0.009344,0.177536,-0.644736,-8.960000,-2.240000,-8.960000,1711268325008,Left
697,773,710,-0.101563,0.105469,0.992188,-0.009344,0.177536,-0.644736,-8.960000,-2.240000,-8.960000,1711268325010,Left
705,541,851,0.058594,-0.113281,1.027344,-0.420480,0.289664,-0.411136,-3.360000,-7.840000,0.000000,1711268325018,Right
705,541,851,0.058594,-0.113281,1.027344,-0.420480,0.289664,-0.411136,-3.360000,-7.840000,0.000000,1711268325020,Right
697,772,710,-0.105469,0.105469,0.988282,-0.009344,0.177536,-0.644736,-8.960000,-2.240000,-10.080000,1711268325028,Left
697,772,710,-0.105469,0.105469,0.988282,-0.009344,0.177536,-0.644736,-8.960000,-2.240000,-10.080000,1711268325031,Left
706,543,850,0.054688,-0.117188,1.027344,-0.420480,0.289664,-0.411136,-3.360000,-7.840000,0.000000,1711268325040,Right
706,543,850,0.054688,-0.117188,1.027344,-0.420480,0.289664,-0.411136,-3.360000,-7.840000,0.000000,1711268325044,Right
696,773,710,-0.105469,0.105469,0.988282,-0.009344,0.177536,-0.635392,-8.960000,-2.240000,-8.960000,1711268325049,Left
696,773,710,-0.105469,0.105469,0.988282,-0.009344,0.177536,-0.635392,-8.960000,-2.240000,-8.960000,1711268325051,Left
697,772,710,-0.101563,0.101563,0.988282,-0.009344,0.186880,-0.654080,-8.960000,-2.240000,-8.960000,1711268325053,Left
697,772,710,-0.101563,0.101563,0.988282,-0.009344,0.186880,-0.654080,-8.960000,-2.240000,-8.960000,1711268325055,Left
705,541,852,0.058594,-0.113281,1.031251,-0.429824,0.299008,-0.420480,-3.360000,-7.840000,0.000000,1711268325060,Right
705,541,852,0.058594,-0.113281,1.031251,-0.429824,0.299008,-0.420480,-3.360000,-7.840000,0.000000,1711268325062,Right
695,771,711,-0.105469,0.101563,0.992188,-0.009344,0.186880,-0.635392,-8.960000,-2.240000,-8.960000,1711268325071,Left
695,771,711,-0.105469,0.101563,0.992188,-0.009344,0.186880,-0.635392,-8.960000,-2.240000,-8.960000,1711268325076,Left
705,542,850,0.058594,-0.117188,1.031251,-0.429824,0.289664,-0.420480,-3.360000,-7.840000,0.000000,1711268325082,Right
705,542,850,0.058594,-0.117188,1.031251,-0.429824,0.289664,-0.420480,-3.360000,-7.840000,0.000000,1711268325084,Right
695,773,711,-0.105469,0.105469,0.984376,-0.009344,0.186880,-0.635392,-8.960000,-2.240000,-8.960000,1711268325092,Left
695,773,711,-0.105469,0.105469,0.984376,-0.009344,0.186880,-0.635392,-8.960000,-2.240000,-8.960000,1711268325095,Left
705,542,850,0.058594,-0.117188,1.031251,-0.429824,0.289664,-0.411136,-3.360000,-7.840000,0.000000,1711268325103,Right
705,542,850,0.058594,-0.117188,1.031251,-0.429824,0.289664,-0.411136,-3.360000,-7.840000,0.000000,1711268325108,Right
697,772,711,-0.101563,0.101563,0.992188,-0.009344,0.177536,-0.626048,-8.960000,-2.240000,-8.960000,1711268325113,Left
697,772,711,-0.101563,0.101563,0.992188,-0.009344,0.177536,-0.626048,-8.960000,-2.240000,-8.960000,1711268325115,Left
705,542,850,0.054688,-0.117188,1.031251,-0.429824,0.289664,-0.411136,-3.360000,-7.840000,0.000000,1711268325124,Right
705,542,850,0.054688,-0.117188,1.031251,-0.429824,0.289664,-0.411136,-3.360000,-7.840000,0.000000,1711268325128,Right
696,772,710,-0.105469,0.105469,0.988282,-0.009344,0.177536,-0.635392,-8.960000,-2.240000,-8.960000,1711268325136,Left
696,772,710,-0.105469,0.105469,0.988282,-0.009344,0.177536,-0.635392,-8.960000,-2.240000,-8.960000,1711268325138,Left
705,541,850,0.058594,-0.117188,1.031251,-0.429824,0.289664,-0.411136,-3.360000,-7.840000,0.000000,1711268325145,Right
705,541,850,0.058594,-0.117188,1.031251,-0.429824,0.289664,-0.411136,-3.360000,-7.840000,0.000000,1711268325148,Right
696,772,710,-0.101563,0.101563,0.992188,-0.009344,0.177536,-0.654080,-8.960000,-2.240000,-10.080000,1711268325156,Left
696,772,710,-0.101563,0.101563,0.992188,-0.009344,0.177536,-0.654080,-8.960000,-2.240000,-10.080000,1711268325158,Left
705,542,851,0.058594,-0.117188,1.031251,-0.429824,0.289664,-0.411136,-3.360000,-7.840000,0.000000,1711268325167,Right
705,542,851,0.058594,-0.117188,1.031251,-0.429824,0.289664,-0.411136,-3.360000,-7.840000,0.000000,1711268325170,Right
696,772,710,-0.101563,0.105469,0.992188,-0.009344,0.177536,-0.626048,-8.960000,-2.240000,-8.960000,1711268325177,Left
696,772,710,-0.101563,0.105469,0.992188,-0.009344,0.177536,-0.626048,-8.960000,-2.240000,-8.960000,1711268325179,Left
706,542,849,0.054688,-0.117188,1.031251,-0.420480,0.299008,-0.411136,-3.360000,-7.840000,0.000000,1711268325188,Right
706,542,849,0.054688,-0.117188,1.031251,-0.420480,0.299008,-0.411136,-3.360000,-7.840000,0.000000,1711268325190,Right
696,772,710,-0.105469,0.101563,0.988282,-0.009344,0.177536,-0.626048,-8.960000,-2.240000,-8.960000,1711268325199,Left
696,772,710,-0.105469,0.101563,0.988282,-0.009344,0.177536,-0.626048,-8.960000,-2.240000,-8.960000,1711268325202,Left
706,542,850,0.058594,-0.121094,1.031251,-0.420480,0.299008,-0.411136,-3.360000,-7.840000,0.000000,1711268325209,Right
706,542,850,0.058594,-0.121094,1.031251,-0.420480,0.299008,-0.411136,-3.360000,-7.840000,0.000000,1711268325212,Right
697,772,710,-0.105469,0.101563,0.988282,-0.009344,0.177536,-0.644736,-8.960000,-2.240000,-8.960000,1711268325220,Left
697,772,710,-0.105469,0.101563,0.988282,-0.009344,0.177536,-0.644736,-8.960000,-2.240000,-8.960000,1711268325222,Left
704,543,852,0.058594,-0.113281,1.031251,-0.429824,0.289664,-0.411136,-3.360000,-7.840000,0.000000,1711268325230,Right
704,543,852,0.058594,-0.113281,1.031251,-0.429824,0.289664,-0.411136,-3.360000,-7.840000,0.000000,1711268325234,Right
696,771,710,-0.101563,0.105469,0.984376,-0.009344,0.186880,-0.635392,-8.960000,-2.240000,-8.960000,1711268325241,Left
696,771,710,-0.101563,0.105469,0.984376,-0.009344,0.186880,-0.635392,-8.960000,-2.240000,-8.960000,1711268325244,Left
703,541,850,0.058594,-0.121094,1.027344,-0.429824,0.289664,-0.411136,-3.360000,-7.840000,0.000000,1711268325254,Right
703,541,850,0.058594,-0.121094,1.027344,-0.429824,0.289664,-0.411136,-3.360000,-7.840000,0.000000,1711268325257,Right
698,774,710,-0.105469,0.105469,0.988282,-0.009344,0.177536,-0.644736,-8.960000,-2.240000,-10.080000,1711268325264,Left
698,774,710,-0.105469,0.105469,0.988282,-0.009344,0.177536,-0.644736,-8.960000,-2.240000,-10.080000,1711268325268,Left
705,542,851,0.058594,-0.113281,1.031251,-0.429824,0.289664,-0.411136,-3.360000,-7.840000,0.000000,1711268325273,Right
705,542,851,0.058594,-0.113281,1.031251,-0.429824,0.289664,-0.411136,-3.360000,-7.840000,0.000000,1711268325276,Right
696,770,709,-0.101563,0.105469,0.988282,-0.009344,0.177536,-0.644736,-8.960000,-2.240000,-8.960000,1711268325285,Left
696,770,709,-0.101563,0.105469,0.988282,-0.009344,0.177536,-0.644736,-8.960000,-2.240000,-8.960000,1711268325288,Left
705,542,851,0.058594,-0.117188,1.031251,-0.429824,0.289664,-0.411136,-3.360000,-7.840000,0.000000,1711268325295,Right
705,542,851,0.058594,-0.117188,1.031251,-0.429824,0.289664,-0.411136,-3.360000,-7.840000,0.000000,1711268325298,Right
697,773,709,-0.105469,0.105469,0.992188,-0.009344,0.177536,-0.635392,-8.960000,-2.240000,-8.960000,1711268325305,Left
697,773,709,-0.105469,0.105469,0.992188,-0.009344,0.177536,-0.635392,-8.960000,-2.240000,-8.960000,1711268325307,Left
707,542,851,0.058594,-0.121094,1.031251,-0.429824,0.289664,-0.401792,-3.360000,-7.840000,0.000000,1711268325315,Right
707,542,851,0.058594,-0.121094,1.031251,-0.429824,0.289664,-0.401792,-3.360000,-7.840000,0.000000,1711268325318,Right
697,772,710,-0.101563,0.105469,0.992188,-0.009344,0.177536,-0.626048,-8.960000,-2.240000,-8.960000,1711268325327,Left
697,772,710,-0.101563,0.105469,0.992188,-0.009344,0.177536,-0.626048,-8.960000,-2.240000,-8.960000,1711268325330,Left
706,542,851,0.058594,-0.117188,1.031251,-0.429824,0.289664,-0.420480,-3.360000,-7.840000,0.000000,1711268325337,Right
706,542,851,0.058594,-0.117188,1.031251,-0.429824,0.289664,-0.420480,-3.360000,-7.840000,0.000000,1711268325340,Right
696,772,711,-0.101563,0.105469,0.992188,-0.009344,0.177536,-0.635392,-8.960000,-2.240000,-10.080000,1711268325348,Left
696,772,711,-0.101563,0.105469,0.992188,-0.009344,0.177536,-0.635392,-8.960000,-2.240000,-10.080000,1711268325350,Left
705,541,850,0.058594,-0.117188,1.031251,-0.429824,0.289664,-0.420480,-3.360000,-7.840000,0.000000,1711268325358,Right
705,541,850,0.058594,-0.117188,1.031251,-0.429824,0.289664,-0.420480,-3.360000,-7.840000,0.000000,1711268325361,Right
695,772,709,-0.101563,0.105469,0.984376,-0.009344,0.177536,-0.635392,-8.960000,-2.240000,-8.960000,1711268325370,Left
695,772,709,-0.101563,0.105469,0.984376,-0.009344,0.177536,-0.635392,-8.960000,-2.240000,-8.960000,1711268325373,Left
704,541,850,0.058594,-0.117188,1.031251,-0.420480,0.299008,-0.411136,-3.360000,-7.840000,0.000000,1711268325381,Right
696,772,710,-0.101563,0.105469,0.988282,-0.009344,0.177536,-0.635392,-8.960000,-2.240000,-8.960000,1711268325390,Left
704,541,850,0.058594,-0.117188,1.031251,-0.420480,0.299008,-0.411136,-3.360000,-7.840000,0.000000,1711268325388,Right
696,772,710,-0.101563,0.105469,0.988282,-0.009344,0.177536,-0.635392,-8.960000,-2.240000,-8.960000,1711268325393,Left
706,543,851,0.058594,-0.113281,1.031251,-0.420480,0.299008,-0.411136,-3.360000,-7.840000,0.000000,1711268325400,Right
706,543,851,0.058594,-0.113281,1.031251,-0.420480,0.299008,-0.411136,-3.360000,-7.840000,0.000000,1711268325402,Right
696,772,710,-0.105469,0.109375,0.988282,-0.009344,0.177536,-0.626048,-8.960000,-2.240000,-8.960000,1711268325410,Left
696,772,710,-0.105469,0.109375,0.988282,-0.009344,0.177536,-0.626048,-8.960000,-2.240000,-8.960000,1711268325412,Left
695,773,711,-0.105469,0.101563,0.984376,-0.009344,0.186880,-0.635392,-8.960000,-2.240000,-10.080000,1711268325414,Left
695,773,711,-0.105469,0.101563,0.984376,-0.009344,0.186880,-0.635392,-8.960000,-2.240000,-10.080000,1711268325415,Left
705,541,850,0.054688,-0.117188,1.031251,-0.429824,0.299008,-0.411136,-3.360000,-7.840000,0.000000,1711268325421,Right
705,541,850,0.054688,-0.117188,1.031251,-0.429824,0.299008,-0.411136,-3.360000,-7.840000,0.000000,1711268325423,Right
697,774,710,-0.105469,0.101563,0.988282,-0.009344,0.177536,-0.635392,-8.960000,-2.240000,-10.080000,1711268325434,Left
697,774,710,-0.105469,0.101563,0.988282,-0.009344,0.177536,-0.635392,-8.960000,-2.240000,-10.080000,1711268325437,Left
705,541,850,0.054688,-0.117188,1.031251,-0.429824,0.299008,-0.420480,-3.360000,-7.840000,0.000000,1711268325443,Right
705,541,850,0.054688,-0.117188,1.031251,-0.429824,0.299008,-0.420480,-3.360000,-7.840000,0.000000,1711268325448,Right
696,773,711,-0.105469,0.105469,0.992188,-0.009344,0.177536,-0.635392,-8.960000,-2.240000,-10.080000,1711268325454,Left
696,773,711,-0.105469,0.105469,0.992188,-0.009344,0.177536,-0.635392,-8.960000,-2.240000,-10.080000,1711268325458,Left
705,542,851,0.058594,-0.117188,1.027344,-0.429824,0.289664,-0.411136,-3.360000,-7.840000,0.000000,1711268325464,Right
705,542,851,0.058594,-0.117188,1.027344,-0.429824,0.289664,-0.411136,-3.360000,-7.840000,0.000000,1711268325467,Right
696,772,710,-0.105469,0.105469,0.984376,-0.009344,0.177536,-0.635392,-8.960000,-2.240000,-10.080000,1711268325475,Left
696,772,710,-0.105469,0.105469,0.984376,-0.009344,0.177536,-0.635392,-8.960000,-2.240000,-10.080000,1711268325478,Left
705,541,851,0.054688,-0.117188,1.031251,-0.429824,0.289664,-0.411136,-3.360000,-7.840000,0.000000,1711268325486,Right
705,541,851,0.054688,-0.117188,1.031251,-0.429824,0.289664,-0.411136,-3.360000,-7.840000,0.000000,1711268325489,Right
695,771,710,-0.105469,0.101563,0.984376,-0.009344,0.177536,-0.635392,-8.960000,-2.240000,-8.960000,1711268325497,Left
695,771,710,-0.105469,0.101563,0.984376,-0.009344,0.177536,-0.635392,-8.960000,-2.240000,-8.960000,1711268325500,Left
705,542,851,0.058594,-0.117188,1.031251,-0.429824,0.299008,-0.411136,-3.360000,-7.840000,0.000000,1711268325507,Right
705,542,851,0.058594,-0.117188,1.031251,-0.429824,0.299008,-0.411136,-3.360000,-7.840000,0.000000,1711268325510,Right
697,771,710,-0.101563,0.101563,0.992188,-0.018688,0.177536,-0.626048,-8.960000,-2.240000,-8.960000,1711268325518,Left
697,771,710,-0.101563,0.101563,0.992188,-0.018688,0.177536,-0.626048,-8.960000,-2.240000,-8.960000,1711268325522,Left
704,542,851,0.062500,-0.113281,1.027344,-0.429824,0.289664,-0.420480,-3.360000,-7.840000,0.000000,1711268325528,Right
704,542,851,0.062500,-0.113281,1.027344,-0.429824,0.289664,-0.420480,-3.360000,-7.840000,0.000000,1711268325530,Right
696,771,710,-0.101563,0.101563,0.988282,-0.009344,0.177536,-0.626048,-8.960000,-2.240000,-10.080000,1711268325539,Left
696,771,710,-0.101563,0.101563,0.988282,-0.009344,0.177536,-0.626048,-8.960000,-2.240000,-10.080000,1711268325541,Left
705,541,849,0.058594,-0.117188,1.031251,-0.429824,0.289664,-0.420480,-3.360000,-7.840000,0.000000,1711268325549,Right
705,541,849,0.058594,-0.117188,1.031251,-0.429824,0.289664,-0.420480,-3.360000,-7.840000,0.000000,1711268325553,Right
696,773,711,-0.101563,0.105469,0.988282,-0.009344,0.177536,-0.626048,-8.960000,-2.240000,-8.960000,1711268325560,Left
696,773,711,-0.101563,0.105469,0.988282,-0.009344,0.177536,-0.626048,-8.960000,-2.240000,-8.960000,1711268325562,Left
706,542,851,0.058594,-0.117188,1.031251,-0.429824,0.289664,-0.420480,-3.360000,-7.840000,0.000000,1711268325570,Right
706,542,851,0.058594,-0.117188,1.031251,-0.429824,0.289664,-0.420480,-3.360000,-7.840000,0.000000,1711268325573,Right
697,772,710,-0.101563,0.105469,0.988282,-0.009344,0.186880,-0.616704,-8.960000,-2.240000,-8.960000,1711268325582,Left
697,772,710,-0.101563,0.105469,0.988282,-0.009344,0.186880,-0.616704,-8.960000,-2.240000,-8.960000,1711268325587,Left
706,542,850,0.058594,-0.117188,1.031251,-0.429824,0.289664,-0.401792,-3.360000,-7.840000,0.000000,1711268325592,Right
706,542,850,0.058594,-0.117188,1.031251,-0.429824,0.289664,-0.401792,-3.360000,-7.840000,0.000000,1711268325597,Right
696,773,709,-0.105469,0.105469,0.992188,-0.009344,0.177536,-0.635392,-8.960000,-2.240000,-8.960000,1711268325603,Left
696,773,709,-0.105469,0.105469,0.992188,-0.009344,0.177536,-0.635392,-8.960000,-2.240000,-8.960000,1711268325604,Left
706,541,852,0.058594,-0.117188,1.031251,-0.429824,0.289664,-0.411136,-3.360000,-7.840000,0.000000,1711268325613,Right
706,541,852,0.058594,-0.117188,1.031251,-0.429824,0.289664,-0.411136,-3.360000,-7.840000,0.000000,1711268325616,Right
697,771,710,-0.101563,0.105469,0.992188,-0.009344,0.177536,-0.626048,-8.960000,-2.240000,-10.080000,1711268325625,Left
697,771,710,-0.101563,0.105469,0.992188,-0.009344,0.177536,-0.626048,-8.960000,-2.240000,-10.080000,1711268325628,Left
704,541,852,0.058594,-0.113281,1.031251,-0.429824,0.289664,-0.420480,-3.360000,-7.840000,0.000000,1711268325634,Right
704,541,852,0.058594,-0.113281,1.031251,-0.429824,0.289664,-0.420480,-3.360000,-7.840000,0.000000,1711268325636,Right
697,772,710,-0.101563,0.105469,0.992188,-0.009344,0.177536,-0.626048,-8.960000,-2.240000,-10.080000,1711268325645,Left
697,772,710,-0.101563,0.105469,0.992188,-0.009344,0.177536,-0.626048,-8.960000,-2.240000,-10.080000,1711268325648,Left
705,542,851,0.058594,-0.117188,1.031251,-0.429824,0.289664,-0.420480,-3.360000,-7.840000,0.000000,1711268325655,Right
705,542,851,0.058594,-0.117188,1.031251,-0.429824,0.289664,-0.420480,-3.360000,-7.840000,0.000000,1711268325659,Right
696,773,711,-0.101563,0.105469,0.992188,-0.018688,0.177536,-0.635392,-8.960000,-2.240000,-8.960000,1711268325667,Left
696,773,711,-0.101563,0.105469,0.992188,-0.018688,0.177536,-0.635392,-8.960000,-2.240000,-8.960000,1711268325669,Left
704,542,851,0.058594,-0.117188,1.031251,-0.429824,0.289664,-0.420480,-3.360000,-7.840000,0.000000,1711268325677,Right
704,542,851,0.058594,-0.117188,1.031251,-0.429824,0.289664,-0.420480,-3.360000,-7.840000,0.000000,1711268325681,Right
696,772,710,-0.101563,0.105469,0.988282,-0.009344,0.177536,-0.635392,-8.960000,-2.240000,-8.960000,1711268325688,Left
696,772,710,-0.101563,0.105469,0.988282,-0.009344,0.177536,-0.635392,-8.960000,-2.240000,-8.960000,1711268325690,Left
705,542,850,0.054688,-0.117188,1.031251,-0.420480,0.299008,-0.420480,-3.360000,-7.840000,0.000000,1711268325698,Right
705,542,850,0.054688,-0.117188,1.031251,-0.420480,0.299008,-0.420480,-3.360000,-7.840000,0.000000,1711268325701,Right
696,773,710,-0.101563,0.105469,0.988282,-0.009344,0.186880,-0.626048,-8.960000,-2.240000,-10.080000,1711268325708,Left
696,773,710,-0.101563,0.105469,0.988282,-0.009344,0.186880,-0.626048,-8.960000,-2.240000,-10.080000,1711268325710,Left
706,542,850,0.054688,-0.117188,1.031251,-0.429824,0.299008,-0.420480,-3.360000,-7.840000,0.000000,1711268325719,Right
706,542,850,0.054688,-0.117188,1.031251,-0.429824,0.299008,-0.420480,-3.360000,-7.840000,0.000000,1711268325723,Right
695,774,710,-0.109375,0.101563,0.988282,-0.009344,0.177536,-0.626048,-8.960000,-2.240000,-8.960000,1711268325730,Left
695,774,710,-0.109375,0.101563,0.988282,-0.009344,0.177536,-0.626048,-8.960000,-2.240000,-8.960000,1711268325733,Left
697,773,710,-0.105469,0.101563,0.988282,-0.018688,0.177536,-0.635392,-8.960000,-2.240000,-10.080000,1711268325736,Left
697,773,710,-0.105469,0.101563,0.988282,-0.018688,0.177536,-0.635392,-8.960000,-2.240000,-10.080000,1711268325739,Left
705,541,850,0.058594,-0.117188,1.031251,-0.429824,0.299008,-0.411136,-3.360000,-7.840000,0.000000,1711268325740,Right
705,541,850,0.058594,-0.117188,1.031251,-0.429824,0.299008,-0.411136,-3.360000,-7.840000,0.000000,1711268325743,Right
696,773,709,-0.105469,0.101563,0.988282,-0.018688,0.177536,-0.635392,-8.960000,-2.240000,-10.080000,1711268325751,Left
696,773,709,-0.105469,0.101563,0.988282,-0.018688,0.177536,-0.635392,-8.960000,-2.240000,-10.080000,1711268325755,Left
705,542,850,0.058594,-0.117188,1.031251,-0.429824,0.299008,-0.411136,-3.360000,-7.840000,0.000000,1711268325761,Right
705,542,850,0.058594,-0.117188,1.031251,-0.429824,0.299008,-0.411136,-3.360000,-7.840000,0.000000,1711268325763,Right
695,773,711,-0.101563,0.101563,0.988282,-0.009344,0.177536,-0.635392,-8.960000,-2.240000,-10.080000,1711268325772,Left
695,773,711,-0.101563,0.101563,0.988282,-0.009344,0.177536,-0.635392,-8.960000,-2.240000,-10.080000,1711268325774,Left
706,542,849,0.058594,-0.121094,1.031251,-0.429824,0.299008,-0.411136,-3.360000,-7.840000,0.000000,1711268325783,Right
706,542,849,0.058594,-0.121094,1.031251,-0.429824,0.299008,-0.411136,-3.360000,-7.840000,0.000000,1711268325785,Right
696,773,710,-0.101563,0.105469,0.988282,-0.009344,0.177536,-0.635392,-8.960000,-2.240000,-10.080000,1711268325794,Left
696,773,710,-0.101563,0.105469,0.988282,-0.009344,0.177536,-0.635392,-8.960000,-2.240000,-10.080000,1711268325797,Left
706,540,852,0.058594,-0.117188,1.031251,-0.420480,0.289664,-0.429824,-3.360000,-7.840000,0.000000,1711268325805,Right
706,540,852,0.058594,-0.117188,1.031251,-0.420480,0.289664,-0.429824,-3.360000,-7.840000,0.000000,1711268325809,Right
696,772,711,-0.101563,0.105469,0.988282,-0.009344,0.177536,-0.626048,-8.960000,-2.240000,-8.960000,1711268325815,Left
696,772,711,-0.101563,0.105469,0.988282,-0.009344,0.177536,-0.626048,-8.960000,-2.240000,-8.960000,1711268325817,Left
705,542,849,0.058594,-0.117188,1.031251,-0.429824,0.299008,-0.420480,-3.360000,-7.840000,0.000000,1711268325825,Right
705,542,849,0.058594,-0.117188,1.031251,-0.429824,0.299008,-0.420480,-3.360000,-7.840000,0.000000,1711268325827,Right
696,771,710,-0.105469,0.105469,0.992188,-0.009344,0.168192,-0.626048,-8.960000,-2.240000,-8.960000,1711268325836,Left
696,771,710,-0.105469,0.105469,0.992188,-0.009344,0.168192,-0.626048,-8.960000,-2.240000,-8.960000,1711268325839,Left
706,542,852,0.058594,-0.113281,1.027344,-0.429824,0.299008,-0.420480,-3.360000,-7.840000,0.000000,1711268325847,Right
706,542,852,0.058594,-0.113281,1.027344,-0.429824,0.299008,-0.420480,-3.360000,-7.840000,0.000000,1711268325851,Right
695,771,710,-0.105469,0.105469,0.984376,-0.009344,0.168192,-0.626048,-8.960000,-2.240000,-8.960000,1711268325857,Left
695,771,710,-0.105469,0.105469,0.984376,-0.009344,0.168192,-0.626048,-8.960000,-2.240000,-8.960000,1711268325860,Left
704,542,851,0.054688,-0.117188,1.031251,-0.420480,0.289664,-0.411136,-3.360000,-7.840000,0.000000,1711268325868,Right
704,542,851,0.054688,-0.117188,1.031251,-0.420480,0.289664,-0.411136,-3.360000,-7.840000,0.000000,1711268325872,Right
695,771,710,-0.101563,0.101563,0.988282,-0.009344,0.186880,-0.626048,-8.960000,-2.240000,-8.960000,1711268325879,Left
695,771,710,-0.101563,0.101563,0.988282,-0.009344,0.186880,-0.626048,-8.960000,-2.240000,-8.960000,1711268325883,Left
705,541,851,0.058594,-0.117188,1.027344,-0.429824,0.289664,-0.411136,-3.360000,-7.840000,0.000000,1711268325889,Right
705,541,851,0.058594,-0.117188,1.027344,-0.429824,0.289664,-0.411136,-3.360000,-7.840000,0.000000,1711268325891,Right
696,773,710,-0.101563,0.105469,0.992188,-0.009344,0.177536,-0.635392,-8.960000,-2.240000,-8.960000,1711268325900,Left
696,773,710,-0.101563,0.105469,0.992188,-0.009344,0.177536,-0.635392,-8.960000,-2.240000,-8.960000,1711268325903,Left
705,541,850,0.058594,-0.117188,1.031251,-0.429824,0.289664,-0.411136,-3.360000,-7.840000,0.000000,1711268325911,Right
705,541,850,0.058594,-0.117188,1.031251,-0.429824,0.289664,-0.411136,-3.360000,-7.840000,0.000000,1711268325915,Right
696,773,709,-0.105469,0.105469,0.988282,-0.009344,0.177536,-0.626048,-8.960000,-2.240000,-8.960000,1711268325921,Left
696,773,709,-0.105469,0.105469,0.988282,-0.009344,0.177536,-0.626048,-8.960000,-2.240000,-8.960000,1711268325923,Left
706,542,850,0.058594,-0.117188,1.031251,-0.429824,0.289664,-0.411136,-3.360000,-7.840000,0.000000,1711268325932,Right
706,542,850,0.058594,-0.117188,1.031251,-0.429824,0.289664,-0.411136,-3.360000,-7.840000,0.000000,1711268325935,Right
704,542,849,0.058594,-0.117188,1.035157,-0.429824,0.289664,-0.411136,-3.360000,-7.840000,0.000000,1711268325954,Right
704,542,849,0.058594,-0.117188,1.035157,-0.429824,0.289664,-0.411136,-3.360000,-7.840000,0.000000,1711268325958,Right
695,772,709,-0.101563,0.105469,0.988282,-0.009344,0.186880,-0.626048,-8.960000,-2.240000,-8.960000,1711268325964,Left
695,772,709,-0.101563,0.105469,0.988282,-0.009344,0.186880,-0.626048,-8.960000,-2.240000,-8.960000,1711268325967,Left
706,541,850,0.050781,-0.117188,1.031251,-0.420480,0.289664,-0.420480,-3.360000,-7.840000,0.000000,1711268325974,Right
706,541,850,0.050781,-0.117188,1.031251,-0.420480,0.289664,-0.420480,-3.360000,-7.840000,0.000000,1711268325978,Right
696,771,711,-0.101563,0.105469,0.988282,-0.009344,0.177536,-0.626048,-8.960000,-2.240000,-8.960000,1711268325985,Left
696,771,711,-0.101563,0.105469,0.988282,-0.009344,0.177536,-0.626048,-8.960000,-2.240000,-8.960000,1711268325986,Left
704,543,850,0.058594,-0.117188,1.027344,-0.429824,0.289664,-0.420480,-3.360000,-7.840000,0.000000,1711268325995,Right
704,543,850,0.058594,-0.117188,1.027344,-0.429824,0.289664,-0.420480,-3.360000,-7.840000,0.000000,1711268325998,Right
696,771,710,-0.101563,0.105469,0.988282,0.000000,0.177536,-0.626048,-8.960000,-2.240000,-10.080000,1711268326006,Left
696,771,710,-0.101563,0.105469,0.988282,0.000000,0.177536,-0.626048,-8.960000,-2.240000,-10.080000,1711268326010,Left
704,544,850,0.058594,-0.117188,1.031251,-0.429824,0.289664,-0.420480,-3.360000,-7.840000,0.000000,1711268326016,Right
704,544,850,0.058594,-0.117188,1.031251,-0.429824,0.289664,-0.420480,-3.360000,-7.840000,0.000000,1711268326018,Right
696,772,710,-0.105469,0.105469,0.988282,-0.009344,0.177536,-0.635392,-8.960000,-2.240000,-10.080000,1711268326027,Left
696,772,710,-0.105469,0.105469,0.988282,-0.009344,0.177536,-0.635392,-8.960000,-2.240000,-10.080000,1711268326030,Left
705,542,851,0.058594,-0.121094,1.031251,-0.429824,0.289664,-0.420480,-3.360000,-7.840000,0.000000,1711268326038,Right
705,542,851,0.058594,-0.121094,1.031251,-0.429824,0.289664,-0.420480,-3.360000,-7.840000,0.000000,1711268326042,Right
696,772,709,-0.105469,0.101563,0.992188,-0.009344,0.177536,-0.635392,-8.960000,-2.240000,-8.960000,1711268326049,Left
696,772,709,-0.105469,0.101563,0.992188,-0.009344,0.177536,-0.635392,-8.960000,-2.240000,-8.960000,1711268326050,Left
705,542,850,0.058594,-0.117188,1.031251,-0.429824,0.289664,-0.401792,-3.360000,-7.840000,0.000000,1711268326059,Right
705,542,850,0.058594,-0.117188,1.031251,-0.429824,0.289664,-0.401792,-3.360000,-7.840000,0.000000,1711268326062,Right
706,542,849,0.058594,-0.117188,1.031251,-0.420480,0.289664,-0.429824,-3.360000,-7.840000,0.000000,1711268326082,Right
706,542,849,0.058594,-0.117188,1.031251,-0.420480,0.289664,-0.429824,-3.360000,-7.840000,0.000000,1711268326087,Right
696,774,709,-0.105469,0.101563,0.992188,-0.009344,0.186880,-0.644736,-8.960000,-2.240000,-10.080000,1711268326093,Left
696,774,709,-0.105469,0.101563,0.992188,-0.009344,0.186880,-0.644736,-8.960000,-2.240000,-10.080000,1711268326095,Left
705,542,851,0.058594,-0.117188,1.027344,-0.420480,0.289664,-0.420480,-3.360000,-7.840000,0.000000,1711268326101,Right
705,542,851,0.058594,-0.117188,1.027344,-0.420480,0.289664,-0.420480,-3.360000,-7.840000,0.000000,1711268326103,Right
697,772,710,-0.101563,0.105469,0.988282,-0.009344,0.186880,-0.644736,-8.960000,-2.240000,-10.080000,1711268326113,Left
697,772,710,-0.101563,0.105469,0.988282,-0.009344,0.186880,-0.644736,-8.960000,-2.240000,-10.080000,1711268326115,Left
696,772,710,-0.101563,0.101563,0.988282,-0.009344,0.186880,-0.626048,-8.960000,-2.240000,-8.960000,1711268326117,Left
696,772,710,-0.101563,0.101563,0.988282,-0.009344,0.186880,-0.626048,-8.960000,-2.240000,-8.960000,1711268326118,Left
697,772,710,-0.105469,0.101563,0.988282,-0.009344,0.186880,-0.626048,-8.960000,-2.240000,-8.960000,1711268326121,Left
705,541,850,0.058594,-0.117188,1.031251,-0.429824,0.299008,-0.420480,-3.360000,-7.840000,0.000000,1711268326124,Right
697,772,710,-0.105469,0.101563,0.988282,-0.009344,0.186880,-0.626048,-8.960000,-2.240000,-8.960000,1711268326122,Left
705,541,850,0.058594,-0.117188,1.031251,-0.429824,0.299008,-0.420480,-3.360000,-7.840000,0.000000,1711268326125,Right
695,772,710,-0.101563,0.105469,0.988282,-0.018688,0.177536,-0.626048,-8.960000,-2.240000,-8.960000,1711268326133,Left
695,772,710,-0.101563,0.105469,0.988282,-0.018688,0.177536,-0.626048,-8.960000,-2.240000,-8.960000,1711268326134,Left
704,541,852,0.058594,-0.117188,1.031251,-0.429824,0.299008,-0.411136,-3.360000,-7.840000,0.000000,1711268326145,Right
704,541,852,0.058594,-0.117188,1.031251,-0.429824,0.299008,-0.411136,-3.360000,-7.840000,0.000000,1711268326149,Right
696,772,710,-0.105469,0.101563,0.988282,-0.009344,0.186880,-0.635392,-8.960000,-2.240000,-10.080000,1711268326155,Left
696,772,710,-0.105469,0.101563,0.988282,-0.009344,0.186880,-0.635392,-8.960000,-2.240000,-10.080000,1711268326158,Left
706,542,851,0.058594,-0.117188,1.031251,-0.429824,0.289664,-0.420480,-3.360000,-7.840000,0.000000,1711268326166,Right
706,542,851,0.058594,-0.117188,1.031251,-0.429824,0.289664,-0.420480,-3.360000,-7.840000,0.000000,1711268326169,Right
695,773,709,-0.101563,0.105469,0.988282,-0.018688,0.177536,-0.635392,-8.960000,-2.240000,-8.960000,1711268326176,Left
695,773,709,-0.101563,0.105469,0.988282,-0.018688,0.177536,-0.635392,-8.960000,-2.240000,-8.960000,1711268326179,Left
704,541,850,0.058594,-0.117188,1.031251,-0.429824,0.299008,-0.429824,-3.360000,-7.840000,0.000000,1711268326187,Right
704,541,850,0.058594,-0.117188,1.031251,-0.429824,0.299008,-0.429824,-3.360000,-7.840000,0.000000,1711268326191,Right
696,771,710,-0.101563,0.105469,0.988282,-0.018688,0.186880,-0.644736,-8.960000,-2.240000,-10.080000,1711268326198,Left
696,771,710,-0.101563,0.105469,0.988282,-0.018688,0.186880,-0.644736,-8.960000,-2.240000,-10.080000,1711268326201,Left
704,540,850,0.058594,-0.121094,1.031251,-0.429824,0.299008,-0.429824,-3.360000,-7.840000,0.000000,1711268326208,Right
704,540,850,0.058594,-0.121094,1.031251,-0.429824,0.299008,-0.429824,-3.360000,-7.840000,0.000000,1711268326210,Right
695,772,710,-0.109375,0.105469,0.988282,-0.018688,0.186880,-0.644736,-8.960000,-2.240000,-8.960000,1711268326219,Left
695,772,710,-0.109375,0.105469,0.988282,-0.018688,0.186880,-0.644736,-8.960000,-2.240000,-8.960000,1711268326221,Left
704,541,850,0.058594,-0.117188,1.027344,-0.420480,0.289664,-0.411136,-3.360000,-7.840000,0.000000,1711268326230,Right
704,541,850,0.058594,-0.117188,1.027344,-0.420480,0.289664,-0.411136,-3.360000,-7.840000,0.000000,1711268326234,Right
695,772,710,-0.101563,0.105469,0.992188,-0.018688,0.186880,-0.635392,-8.960000,-2.240000,-10.080000,1711268326241,Left
695,772,710,-0.101563,0.105469,0.992188,-0.018688,0.186880,-0.635392,-8.960000,-2.240000,-10.080000,1711268326244,Left
704,542,850,0.058594,-0.113281,1.027344,-0.420480,0.289664,-0.411136,-3.360000,-7.840000,0.000000,1711268326250,Right
704,542,850,0.058594,-0.113281,1.027344,-0.420480,0.289664,-0.411136,-3.360000,-7.840000,0.000000,1711268326252,Right
697,772,710,-0.101563,0.105469,0.988282,-0.018688,0.177536,-0.635392,-8.960000,-2.240000,-8.960000,1711268326261,Left
697,772,710,-0.101563,0.105469,0.988282,-0.018688,0.177536,-0.635392,-8.960000,-2.240000,-8.960000,1711268326264,Left
705,541,851,0.058594,-0.117188,1.027344,-0.429824,0.299008,-0.429824,-3.360000,-7.840000,0.000000,1711268326272,Right
705,541,851,0.058594,-0.117188,1.027344,-0.429824,0.299008,-0.429824,-3.360000,-7.840000,0.000000,1711268326276,Right
696,772,710,-0.105469,0.101563,0.988282,-0.009344,0.186880,-0.644736,-8.960000,-2.240000,-8.960000,1711268326283,Left
696,772,710,-0.105469,0.101563,0.988282,-0.009344,0.186880,-0.644736,-8.960000,-2.240000,-8.960000,1711268326286,Left
703,541,850,0.058594,-0.113281,1.031251,-0.429824,0.299008,-0.429824,-3.360000,-7.840000,0.000000,1711268326294,Right
703,541,850,0.058594,-0.113281,1.031251,-0.429824,0.299008,-0.429824,-3.360000,-7.840000,0.000000,1711268326298,Right
695,773,711,-0.105469,0.105469,0.992188,-0.009344,0.186880,-0.644736,-8.960000,-2.240000,-8.960000,1711268326304,Left
695,773,711,-0.105469,0.105469,0.992188,-0.009344,0.186880,-0.644736,-8.960000,-2.240000,-8.960000,1711268326308,Left
704,542,850,0.062500,-0.117188,1.031251,-0.429824,0.289664,-0.429824,-3.360000,-7.840000,0.000000,1711268326314,Right
704,542,850,0.062500,-0.117188,1.031251,-0.429824,0.289664,-0.429824,-3.360000,-7.840000,0.000000,1711268326316,Right
697,772,712,-0.105469,0.101563,0.988282,-0.009344,0.186880,-0.644736,-8.960000,-2.240000,-8.960000,1711268326325,Left
697,772,712,-0.105469,0.101563,0.988282,-0.009344,0.186880,-0.644736,-8.960000,-2.240000,-8.960000,1711268326328,Left
704,541,850,0.058594,-0.117188,1.027344,-0.429824,0.289664,-0.420480,-3.360000,-7.840000,0.000000,1711268326336,Right
704,541,850,0.058594,-0.117188,1.027344,-0.429824,0.289664,-0.420480,-3.360000,-7.840000,0.000000,1711268326339,Right
696,773,710,-0.101563,0.101563,0.988282,-0.018688,0.186880,-0.635392,-8.960000,-2.240000,-8.960000,1711268326346,Left
696,773,710,-0.101563,0.101563,0.988282,-0.018688,0.186880,-0.635392,-8.960000,-2.240000,-8.960000,1711268326348,Left
705,542,851,0.058594,-0.117188,1.031251,-0.439168,0.289664,-0.429824,-3.360000,-7.840000,0.000000,1711268326357,Right
705,542,851,0.058594,-0.117188,1.031251,-0.439168,0.289664,-0.429824,-3.360000,-7.840000,0.000000,1711268326360,Right
697,773,710,-0.105469,0.101563,0.988282,-0.009344,0.177536,-0.644736,-8.960000,-2.240000,-8.960000,1711268326368,Left
697,773,710,-0.105469,0.101563,0.988282,-0.009344,0.177536,-0.644736,-8.960000,-2.240000,-8.960000,1711268326370,Left
704,542,851,0.054688,-0.113281,1.031251,-0.429824,0.299008,-0.411136,-3.360000,-7.840000,0.000000,1711268326378,Right
704,542,851,0.054688,-0.113281,1.031251,-0.429824,0.299008,-0.411136,-3.360000,-7.840000,0.000000,1711268326381,Right
695,771,710,-0.105469,0.105469,0.992188,-0.018688,0.177536,-0.644736,-8.960000,-2.240000,-10.080000,1711268326389,Left
695,771,710,-0.105469,0.105469,0.992188,-0.018688,0.177536,-0.644736,-8.960000,-2.240000,-10.080000,1711268326392,Left
704,540,850,0.054688,-0.113281,1.027344,-0.429824,0.299008,-0.411136,-3.360000,-7.840000,0.000000,1711268326400,Right
704,540,850,0.054688,-0.113281,1.027344,-0.429824,0.299008,-0.411136,-3.360000,-7.840000,0.000000,1711268326404,Right
695,772,711,-0.105469,0.101563,0.984376,-0.018688,0.177536,-0.644736,-8.960000,-2.240000,-8.960000,1711268326410,Left
695,772,711,-0.105469,0.101563,0.984376,-0.018688,0.177536,-0.644736,-8.960000,-2.240000,-8.960000,1711268326413,Left
705,543,850,0.058594,-0.117188,1.031251,-0.429824,0.289664,-0.420480,-3.360000,-7.840000,0.000000,1711268326420,Right
705,543,850,0.058594,-0.117188,1.031251,-0.429824,0.289664,-0.420480,-3.360000,-7.840000,0.000000,1711268326423,Right
697,773,710,-0.101563,0.101563,0.988282,-0.009344,0.177536,-0.635392,-8.960000,-2.240000,-8.960000,1711268326432,Left
697,773,710,-0.101563,0.101563,0.988282,-0.009344,0.177536,-0.635392,-8.960000,-2.240000,-8.960000,1711268326436,Left
697,774,710,-0.101563,0.105469,0.992188,-0.018688,0.177536,-0.644736,-8.960000,-2.240000,-8.960000,1711268326439,Left
697,774,710,-0.101563,0.105469,0.992188,-0.018688,0.177536,-0.644736,-8.960000,-2.240000,-8.960000,1711268326440,Left
706,542,851,0.058594,-0.117188,1.031251,-0.439168,0.289664,-0.429824,-3.360000,-7.840000,0.000000,1711268326442,Right
706,542,851,0.058594,-0.117188,1.031251,-0.439168,0.289664,-0.429824,-3.360000,-7.840000,0.000000,1711268326445,Right
696,772,711,-0.101563,0.101563,0.988282,-0.018688,0.177536,-0.635392,-8.960000,-2.240000,-8.960000,1711268326452,Left
696,772,711,-0.101563,0.101563,0.988282,-0.018688,0.177536,-0.635392,-8.960000,-2.240000,-8.960000,1711268326453,Left
705,541,850,0.058594,-0.121094,1.027344,-0.429824,0.289664,-0.420480,-3.360000,-7.840000,0.000000,1711268326463,Right
705,541,850,0.058594,-0.121094,1.027344,-0.429824,0.289664,-0.420480,-3.360000,-7.840000,0.000000,1711268326467,Right
696,773,711,-0.101563,0.101563,0.988282,-0.018688,0.177536,-0.635392,-8.960000,-2.240000,-8.960000,1711268326473,Left
696,773,711,-0.101563,0.101563,0.988282,-0.018688,0.177536,-0.635392,-8.960000,-2.240000,-8.960000,1711268326475,Left
705,542,851,0.058594,-0.117188,1.027344,-0.429824,0.289664,-0.420480,-3.360000,-7.840000,0.000000,1711268326484,Right
705,542,851,0.058594,-0.117188,1.027344,-0.429824,0.289664,-0.420480,-3.360000,-7.840000,0.000000,1711268326487,Right
696,772,710,-0.101563,0.105469,0.988282,-0.009344,0.177536,-0.635392,-8.960000,-2.240000,-10.080000,1711268326495,Left
696,772,710,-0.101563,0.105469,0.988282,-0.009344,0.177536,-0.635392,-8.960000,-2.240000,-10.080000,1711268326498,Left
704,541,850,0.058594,-0.117188,1.031251,-0.429824,0.289664,-0.420480,-3.360000,-7.840000,0.000000,1711268326505,Right
704,541,850,0.058594,-0.117188,1.031251,-0.429824,0.289664,-0.420480,-3.360000,-7.840000,0.000000,1711268326509,Right
695,773,710,-0.101563,0.101563,0.992188,-0.009344,0.177536,-0.626048,-8.960000,-2.240000,-10.080000,1711268326517,Left
695,773,710,-0.101563,0.101563,0.992188,-0.009344,0.177536,-0.626048,-8.960000,-2.240000,-10.080000,1711268326520,Left
705,541,850,0.058594,-0.117188,1.035157,-0.429824,0.289664,-0.420480,-3.360000,-7.840000,0.000000,1711268326527,Right
705,541,850,0.058594,-0.117188,1.035157,-0.429824,0.289664,-0.420480,-3.360000,-7.840000,0.000000,1711268326531,Right
696,772,710,-0.101563,0.105469,0.988282,-0.009344,0.177536,-0.644736,-8.960000,-2.240000,-8.960000,1711268326538,Left
696,772,710,-0.101563,0.105469,0.988282,-0.009344,0.177536,-0.644736,-8.960000,-2.240000,-8.960000,1711268326540,Left
704,539,852,0.058594,-0.117188,1.027344,-0.429824,0.289664,-0.411136,-3.360000,-7.840000,0.000000,1711268326548,Right
704,539,852,0.058594,-0.117188,1.027344,-0.429824,0.289664,-0.411136,-3.360000,-7.840000,0.000000,1711268326550,Right
696,772,710,-0.105469,0.101563,0.988282,-0.009344,0.177536,-0.635392,-8.960000,-2.240000,-10.080000,1711268326560,Left
696,772,710,-0.105469,0.101563,0.988282,-0.009344,0.177536,-0.635392,-8.960000,-2.240000,-10.080000,1711268326563,Left
705,542,850,0.058594,-0.117188,1.031251,-0.429824,0.289664,-0.429824,-3.360000,-7.840000,0.000000,1711268326569,Right
705,542,850,0.058594,-0.117188,1.031251,-0.429824,0.289664,-0.429824,-3.360000,-7.840000,0.000000,1711268326571,Right
697,772,710,-0.101563,0.105469,0.988282,-0.009344,0.177536,-0.635392,-8.960000,-2.240000,-10.080000,1711268326580,Left
697,772,710,-0.101563,0.105469,0.988282,-0.009344,0.177536,-0.635392,-8.960000,-2.240000,-10.080000,1711268326582,Left
706,542,850,0.058594,-0.113281,1.031251,-0.429824,0.289664,-0.429824,-3.360000,-7.840000,0.000000,1711268326590,Right
706,542,850,0.058594,-0.113281,1.031251,-0.429824,0.289664,-0.429824,-3.360000,-7.840000,0.000000,1711268326594,Right
695,774,711,-0.105469,0.101563,0.988282,-0.009344,0.177536,-0.635392,-8.960000,-2.240000,-10.080000,1711268326601,Left
695,774,711,-0.105469,0.101563,0.988282,-0.009344,0.177536,-0.635392,-8.960000,-2.240000,-10.080000,1711268326603,Left
705,542,850,0.058594,-0.117188,1.031251,-0.429824,0.299008,-0.420480,-3.360000,-7.840000,0.000000,1711268326612,Right
705,542,850,0.058594,-0.117188,1.031251,-0.429824,0.299008,-0.420480,-3.360000,-7.840000,0.000000,1711268326614,Right
696,773,710,-0.109375,0.097656,0.996094,-0.018688,0.177536,-0.626048,-8.960000,-2.240000,-8.960000,1711268326623,Left
696,773,710,-0.109375,0.097656,0.996094,-0.018688,0.177536,-0.626048,-8.960000,-2.240000,-8.960000,1711268326626,Left
706,542,852,0.058594,-0.117188,1.031251,-0.429824,0.289664,-0.429824,-3.360000,-7.840000,0.000000,1711268326633,Right
706,542,852,0.058594,-0.117188,1.031251,-0.429824,0.289664,-0.429824,-3.360000,-7.840000,0.000000,1711268326636,Right
696,772,710,-0.097656,0.101563,0.992188,-0.018688,0.177536,-0.644736,-8.960000,-2.240000,-8.960000,1711268326645,Left
696,772,710,-0.097656,0.101563,0.992188,-0.018688,0.177536,-0.644736,-8.960000,-2.240000,-8.960000,1711268326647,Left
706,542,851,0.058594,-0.117188,1.031251,-0.429824,0.289664,-0.420480,-3.360000,-7.840000,0.000000,1711268326655,Right
706,542,851,0.058594,-0.117188,1.031251,-0.429824,0.289664,-0.420480,-3.360000,-7.840000,0.000000,1711268326659,Right
697,772,710,-0.101563,0.105469,0.992188,-0.018688,0.177536,-0.635392,-8.960000,-2.240000,-8.960000,1711268326665,Left
697,772,710,-0.101563,0.105469,0.992188,-0.018688,0.177536,-0.635392,-8.960000,-2.240000,-8.960000,1711268326668,Left
705,542,851,0.058594,-0.117188,1.027344,-0.429824,0.289664,-0.420480,-3.360000,-7.840000,0.000000,1711268326675,Right
705,542,851,0.058594,-0.117188,1.027344,-0.429824,0.289664,-0.420480,-3.360000,-7.840000,0.000000,1711268326678,Right
697,772,712,-0.101563,0.101563,0.988282,-0.018688,0.177536,-0.635392,-8.960000,-2.240000,-8.960000,1711268326686,Left
697,772,712,-0.101563,0.101563,0.988282,-0.018688,0.177536,-0.635392,-8.960000,-2.240000,-8.960000,1711268326689,Left
705,542,851,0.058594,-0.117188,1.027344,-0.429824,0.289664,-0.420480,-3.360000,-7.840000,0.000000,1711268326697,Right
705,542,851,0.058594,-0.117188,1.027344,-0.429824,0.289664,-0.420480,-3.360000,-7.840000,0.000000,1711268326701,Right
695,772,710,-0.105469,0.105469,0.984376,-0.018688,0.177536,-0.635392,-8.960000,-2.240000,-8.960000,1711268326708,Left
695,772,710,-0.105469,0.105469,0.984376,-0.018688,0.177536,-0.635392,-8.960000,-2.240000,-8.960000,1711268326711,Left
704,541,852,0.058594,-0.117188,1.027344,-0.429824,0.289664,-0.429824,-3.360000,-7.840000,0.000000,1711268326718,Right
704,541,852,0.058594,-0.117188,1.027344,-0.429824,0.289664,-0.429824,-3.360000,-7.840000,0.000000,1711268326722,Right
697,772,711,-0.105469,0.101563,0.984376,-0.018688,0.177536,-0.635392,-8.960000,-2.240000,-8.960000,1711268326729,Left
697,772,711,-0.105469,0.101563,0.984376,-0.018688,0.177536,-0.635392,-8.960000,-2.240000,-8.960000,1711268326732,Left
704,542,850,0.058594,-0.117188,1.027344,-0.439168,0.289664,-0.429824,-3.360000,-7.840000,0.000000,1711268326739,Right
704,542,850,0.058594,-0.117188,1.027344,-0.439168,0.289664,-0.429824,-3.360000,-7.840000,0.000000,1711268326742,Right
696,774,711,-0.101563,0.105469,0.984376,-0.018688,0.177536,-0.635392,-8.960000,-2.240000,-8.960000,1711268326749,Left
696,774,711,-0.101563,0.105469,0.984376,-0.018688,0.177536,-0.635392,-8.960000,-2.240000,-8.960000,1711268326752,Left
697,772,711,-0.101563,0.101563,0.988282,-0.009344,0.177536,-0.626048,-8.960000,-2.240000,-8.960000,1711268326754,Left
697,772,711,-0.101563,0.101563,0.988282,-0.009344,0.177536,-0.626048,-8.960000,-2.240000,-8.960000,1711268326757,Left
705,542,849,0.058594,-0.121094,1.031251,-0.429824,0.289664,-0.429824,-3.360000,-7.840000,0.000000,1711268326760,Right
705,542,849,0.058594,-0.121094,1.031251,-0.429824,0.289664,-0.429824,-3.360000,-7.840000,0.000000,1711268326762,Right
696,773,710,-0.105469,0.105469,0.988282,-0.018688,0.177536,-0.635392,-8.960000,-2.240000,-8.960000,1711268326771,Left
696,773,710,-0.105469,0.105469,0.988282,-0.018688,0.177536,-0.635392,-8.960000,-2.240000,-8.960000,1711268326773,Left
705,541,852,0.058594,-0.117188,1.027344,-0.429824,0.289664,-0.429824,-3.360000,-7.840000,0.000000,1711268326781,Right
705,541,852,0.058594,-0.117188,1.027344,-0.429824,0.289664,-0.429824,-3.360000,-7.840000,0.000000,1711268326785,Right
696,773,710,-0.097656,0.101563,0.988282,-0.018688,0.177536,-0.635392,-8.960000,-2.240000,-8.960000,1711268326792,Left
696,773,710,-0.097656,0.101563,0.988282,-0.018688,0.177536,-0.635392,-8.960000,-2.240000,-8.960000,1711268326794,Left
705,543,850,0.054688,-0.117188,1.031251,-0.429824,0.289664,-0.429824,-3.360000,-7.840000,0.000000,1711268326804,Right
705,543,850,0.054688,-0.117188,1.031251,-0.429824,0.289664,-0.429824,-3.360000,-7.840000,0.000000,1711268326807,Right
696,773,710,-0.101563,0.101563,0.988282,-0.018688,0.186880,-0.635392,-8.960000,-2.240000,-8.960000,1711268326813,Left
696,773,710,-0.101563,0.101563,0.988282,-0.018688,0.186880,-0.635392,-8.960000,-2.240000,-8.960000,1711268326815,Left
705,542,851,0.058594,-0.117188,1.031251,-0.429824,0.299008,-0.420480,-3.360000,-7.840000,0.000000,1711268326828,Right
705,542,851,0.058594,-0.117188,1.031251,-0.429824,0.299008,-0.420480,-3.360000,-7.840000,0.000000,1711268326831,Right
696,772,710,-0.105469,0.105469,0.988282,-0.009344,0.186880,-0.626048,-8.960000,-2.240000,-10.080000,1711268326835,Left
696,772,710,-0.105469,0.105469,0.988282,-0.009344,0.186880,-0.626048,-8.960000,-2.240000,-10.080000,1711268326838,Left
704,540,850,0.058594,-0.117188,1.031251,-0.429824,0.289664,-0.429824,-3.360000,-7.840000,0.000000,1711268326845,Right
704,540,850,0.058594,-0.117188,1.031251,-0.429824,0.289664,-0.429824,-3.360000,-7.840000,0.000000,1711268326847,Right
695,773,711,-0.105469,0.105469,0.988282,-0.009344,0.186880,-0.626048,-8.960000,-2.240000,-10.080000,1711268326857,Left
695,773,711,-0.105469,0.105469,0.988282,-0.009344,0.186880,-0.626048,-8.960000,-2.240000,-10.080000,1711268326861,Left
705,541,851,0.058594,-0.117188,1.031251,-0.429824,0.289664,-0.429824,-3.360000,-7.840000,0.000000,1711268326867,Right
705,541,851,0.058594,-0.117188,1.031251,-0.429824,0.289664,-0.429824,-3.360000,-7.840000,0.000000,1711268326870,Right
695,772,710,-0.105469,0.105469,0.988282,-0.009344,0.186880,-0.626048,-8.960000,-2.240000,-8.960000,1711268326877,Left
695,772,710,-0.105469,0.105469,0.988282,-0.009344,0.186880,-0.626048,-8.960000,-2.240000,-8.960000,1711268326878,Left
706,542,850,0.058594,-0.117188,1.027344,-0.429824,0.289664,-0.429824,-3.360000,-7.840000,0.000000,1711268326888,Right
706,542,850,0.058594,-0.117188,1.027344,-0.429824,0.289664,-0.429824,-3.360000,-7.840000,0.000000,1711268326891,Right
695,773,710,-0.101563,0.101563,0.988282,-0.009344,0.186880,-0.635392,-8.960000,-2.240000,-8.960000,1711268326899,Left
695,773,710,-0.101563,0.101563,0.988282,-0.009344,0.186880,-0.635392,-8.960000,-2.240000,-8.960000,1711268326901,Left
705,541,849,0.070313,-0.125000,1.035157,-0.429824,0.289664,-0.420480,-3.360000,-7.840000,0.000000,1711268326909,Right
705,541,849,0.070313,-0.125000,1.035157,-0.429824,0.289664,-0.420480,-3.360000,-7.840000,0.000000,1711268326913,Right
696,773,711,-0.105469,0.101563,0.988282,-0.009344,0.186880,-0.635392,-8.960000,-2.240000,-10.080000,1711268326920,Left
696,773,711,-0.105469,0.101563,0.988282,-0.009344,0.186880,-0.635392,-8.960000,-2.240000,-10.080000,1711268326924,Left
704,542,850,0.058594,-0.117188,1.031251,-0.429824,0.289664,-0.411136,-3.360000,-7.840000,0.000000,1711268326930,Right
704,542,850,0.058594,-0.117188,1.031251,-0.429824,0.289664,-0.411136,-3.360000,-7.840000,0.000000,1711268326932,Right
706,541,850,0.050781,-0.113281,1.031251,-0.429824,0.289664,-0.411136,-3.360000,-7.840000,0.000000,1711268326953,Right
706,541,850,0.050781,-0.113281,1.031251,-0.429824,0.289664,-0.411136,-3.360000,-7.840000,0.000000,1711268326956,Right
696,773,710,-0.101563,0.101563,0.988282,-0.009344,0.177536,-0.626048,-8.960000,-2.240000,-8.960000,1711268326963,Left
696,773,710,-0.101563,0.101563,0.988282,-0.009344,0.177536,-0.626048,-8.960000,-2.240000,-8.960000,1711268326966,Left
704,543,850,0.054688,-0.117188,1.027344,-0.429824,0.289664,-0.420480,-3.360000,-7.840000,0.000000,1711268326973,Right
704,543,850,0.054688,-0.117188,1.027344,-0.429824,0.289664,-0.420480,-3.360000,-7.840000,0.000000,1711268326977,Right
696,772,710,-0.101563,0.101563,0.988282,-0.009344,0.177536,-0.626048,-8.960000,-2.240000,-8.960000,1711268326984,Left
696,772,710,-0.101563,0.101563,0.988282,-0.009344,0.177536,-0.626048,-8.960000,-2.240000,-8.960000,1711268326987,Left
705,541,851,0.058594,-0.121094,1.027344,-0.429824,0.289664,-0.420480,-3.360000,-7.840000,0.000000,1711268326994,Right
705,541,851,0.058594,-0.121094,1.027344,-0.429824,0.289664,-0.420480,-3.360000,-7.840000,0.000000,1711268326996,Right
696,773,710,-0.101563,0.101563,0.988282,-0.009344,0.177536,-0.644736,-8.960000,-2.240000,-10.080000,1711268327006,Left
696,773,710,-0.101563,0.101563,0.988282,-0.009344,0.177536,-0.644736,-8.960000,-2.240000,-10.080000,1711268327009,Left
705,541,850,0.058594,-0.117188,1.031251,-0.429824,0.289664,-0.420480,-3.360000,-7.840000,0.000000,1711268327016,Right
705,541,850,0.058594,-0.117188,1.031251,-0.429824,0.289664,-0.420480,-3.360000,-7.840000,0.000000,1711268327019,Right
695,772,710,-0.101563,0.105469,0.988282,-0.009344,0.186880,-0.635392,-8.960000,-2.240000,-10.080000,1711268327026,Left
695,772,710,-0.101563,0.105469,0.988282,-0.009344,0.186880,-0.635392,-8.960000,-2.240000,-10.080000,1711268327029,Left
704,542,849,0.058594,-0.117188,1.031251,-0.429824,0.289664,-0.420480,-3.360000,-7.840000,0.000000,1711268327037,Right
704,542,849,0.058594,-0.117188,1.031251,-0.429824,0.289664,-0.420480,-3.360000,-7.840000,0.000000,1711268327040,Right
696,773,712,-0.101563,0.105469,0.992188,-0.018688,0.186880,-0.626048,-8.960000,-2.240000,-8.960000,1711268327047,Left
696,773,712,-0.101563,0.105469,0.992188,-0.018688,0.186880,-0.626048,-8.960000,-2.240000,-8.960000,1711268327049,Left
704,542,851,0.058594,-0.121094,1.031251,-0.429824,0.289664,-0.401792,-3.360000,-7.840000,0.000000,1711268327058,Right
704,542,851,0.058594,-0.121094,1.031251,-0.429824,0.289664,-0.401792,-3.360000,-7.840000,0.000000,1711268327061,Right
696,771,710,-0.101563,0.101563,0.992188,-0.018688,0.186880,-0.626048,-8.960000,-2.240000,-8.960000,1711268327069,Left
696,771,710,-0.101563,0.101563,0.992188,-0.018688,0.186880,-0.626048,-8.960000,-2.240000,-8.960000,1711268327072,Left
695,773,710,-0.101563,0.101563,0.988282,-0.009344,0.177536,-0.635392,-8.960000,-2.240000,-8.960000,1711268327076,Left
695,773,710,-0.101563,0.101563,0.988282,-0.009344,0.177536,-0.635392,-8.960000,-2.240000,-8.960000,1711268327079,Left
705,541,851,0.058594,-0.121094,1.031251,-0.420480,0.289664,-0.420480,-3.360000,-7.840000,0.000000,1711268327080,Right
705,541,851,0.058594,-0.121094,1.031251,-0.420480,0.289664,-0.420480,-3.360000,-7.840000,0.000000,1711268327083,Right
697,772,710,-0.105469,0.105469,0.988282,-0.009344,0.186880,-0.644736,-8.960000,-2.240000,-8.960000,1711268327090,Left
697,772,710,-0.105469,0.105469,0.988282,-0.009344,0.186880,-0.644736,-8.960000,-2.240000,-8.960000,1711268327091,Left
705,542,850,0.054688,-0.117188,1.035157,-0.420480,0.289664,-0.420480,-3.360000,-7.840000,0.000000,1711268327101,Right
705,542,850,0.054688,-0.117188,1.035157,-0.420480,0.289664,-0.420480,-3.360000,-7.840000,0.000000,1711268327103,Right
695,773,712,-0.097656,0.105469,0.988282,-0.018688,0.177536,-0.635392,-8.960000,-2.240000,-8.960000,1711268327112,Left
695,773,712,-0.097656,0.105469,0.988282,-0.018688,0.177536,-0.635392,-8.960000,-2.240000,-8.960000,1711268327114,Left
705,541,849,0.058594,-0.117188,1.031251,-0.429824,0.289664,-0.411136,-3.360000,-7.840000,0.000000,1711268327122,Right
705,541,849,0.058594,-0.117188,1.031251,-0.429824,0.289664,-0.411136,-3.360000,-7.840000,0.000000,1711268327126,Right
696,772,710,-0.101563,0.105469,0.984376,-0.018688,0.177536,-0.635392,-8.960000,-2.240000,-8.960000,1711268327133,Left
696,772,710,-0.101563,0.105469,0.984376,-0.018688,0.177536,-0.635392,-8.960000,-2.240000,-8.960000,1711268327135,Left
705,541,851,0.058594,-0.117188,1.031251,-0.429824,0.289664,-0.429824,-3.360000,-7.840000,0.000000,1711268327143,Right
705,541,851,0.058594,-0.117188,1.031251,-0.429824,0.289664,-0.429824,-3.360000,-7.840000,0.000000,1711268327146,Right
697,772,710,-0.105469,0.105469,0.988282,-0.018688,0.177536,-0.635392,-8.960000,-2.240000,-8.960000,1711268327153,Left
697,772,710,-0.105469,0.105469,0.988282,-0.018688,0.177536,-0.635392,-8.960000,-2.240000,-8.960000,1711268327155,Left
706,541,850,0.058594,-0.117188,1.027344,-0.429824,0.299008,-0.429824,-3.360000,-7.840000,0.000000,1711268327164,Right
706,541,850,0.058594,-0.117188,1.027344,-0.429824,0.299008,-0.429824,-3.360000,-7.840000,0.000000,1711268327167,Right
696,772,709,-0.105469,0.101563,0.992188,-0.009344,0.186880,-0.635392,-8.960000,-2.240000,-8.960000,1711268327175,Left
696,772,709,-0.105469,0.101563,0.992188,-0.009344,0.186880,-0.635392,-8.960000,-2.240000,-8.960000,1711268327177,Left
706,542,850,0.058594,-0.117188,1.027344,-0.420480,0.289664,-0.420480,-3.360000,-7.840000,0.000000,1711268327185,Right
706,542,850,0.058594,-0.117188,1.027344,-0.420480,0.289664,-0.420480,-3.360000,-7.840000,0.000000,1711268327188,Right
697,772,710,-0.109375,0.105469,0.988282,-0.009344,0.186880,-0.626048,-8.960000,-2.240000,-8.960000,1711268327196,Left
697,772,710,-0.109375,0.105469,0.988282,-0.009344,0.186880,-0.626048,-8.960000,-2.240000,-8.960000,1711268327199,Left
705,541,852,0.058594,-0.117188,1.031251,-0.420480,0.289664,-0.420480,-3.360000,-7.840000,0.000000,1711268327207,Right
705,541,852,0.058594,-0.117188,1.031251,-0.420480,0.289664,-0.420480,-3.360000,-7.840000,0.000000,1711268327212,Right
696,772,709,-0.101563,0.101563,0.988282,-0.009344,0.186880,-0.644736,-8.960000,-2.240000,-8.960000,1711268327217,Left
696,772,709,-0.101563,0.101563,0.988282,-0.009344,0.186880,-0.644736,-8.960000,-2.240000,-8.960000,1711268327219,Left
705,542,851,0.054688,-0.117188,1.031251,-0.429824,0.289664,-0.411136,-3.360000,-7.840000,0.000000,1711268327228,Right
705,542,851,0.054688,-0.117188,1.031251,-0.429824,0.289664,-0.411136,-3.360000,-7.840000,0.000000,1711268327231,Right
695,773,712,-0.097656,0.105469,0.988282,-0.009344,0.186880,-0.644736,-8.960000,-2.240000,-8.960000,1711268327239,Left
695,773,712,-0.097656,0.105469,0.988282,-0.009344,0.186880,-0.644736,-8.960000,-2.240000,-8.960000,1711268327242,Left
705,542,851,0.062500,-0.117188,1.027344,-0.429824,0.289664,-0.420480,-3.360000,-7.840000,0.000000,1711268327249,Right
705,542,851,0.062500,-0.117188,1.027344,-0.429824,0.289664,-0.420480,-3.360000,-7.840000,0.000000,1711268327252,Right
696,772,710,-0.101563,0.101563,0.988282,-0.009344,0.186880,-0.644736,-8.960000,-2.240000,-8.960000,1711268327260,Left
696,772,710,-0.101563,0.101563,0.988282,-0.009344,0.186880,-0.644736,-8.960000,-2.240000,-8.960000,1711268327262,Left
705,541,850,0.058594,-0.117188,1.031251,-0.429824,0.289664,-0.420480,-3.360000,-7.840000,0.000000,1711268327270,Right
705,541,850,0.058594,-0.117188,1.031251,-0.429824,0.289664,-0.420480,-3.360000,-7.840000,0.000000,1711268327274,Right
696,772,711,-0.101563,0.101563,0.988282,-0.009344,0.177536,-0.635392,-8.960000,-2.240000,-8.960000,1711268327281,Left
696,772,711,-0.101563,0.101563,0.988282,-0.009344,0.177536,-0.635392,-8.960000,-2.240000,-8.960000,1711268327283,Left
706,541,850,0.054688,-0.117188,1.031251,-0.429824,0.289664,-0.420480,-3.360000,-7.840000,0.000000,1711268327291,Right
706,541,850,0.054688,-0.117188,1.031251,-0.429824,0.289664,-0.420480,-3.360000,-7.840000,0.000000,1711268327294,Right
697,772,711,-0.101563,0.101563,0.988282,-0.009344,0.186880,-0.635392,-8.960000,-2.240000,-8.960000,1711268327303,Left
697,772,711,-0.101563,0.101563,0.988282,-0.009344,0.186880,-0.635392,-8.960000,-2.240000,-8.960000,1711268327304,Left
